PlayerID,Timestamp,GameMode,Level,FinalScore,Completed,SuccessRate(%),HitRate(%),FalseAlarms,InitialResponseTime(ms),AvgInterTargetTime(ms),"HitPositions(x,y)",ParticipantID,TargetLoad,Modality,target_col,thisN,thisTrialN,thisRepN,mouse.x,mouse.y,mouse.leftButton,mouse.midButton,mouse.rightButton,mouse.time,mouse.clicked_name,trials.thisRepN,trials.thisTrialN,trials.thisN,trials.thisIndex,thisRow.t,notes,instructions.started,instrTxt.started,startMouse.started,instructions.stopped,startMouse.x,startMouse.y,startMouse.leftButton,startMouse.midButton,startMouse.rightButton,trial.started,square.started,mouse.started,trial_counter.started,target.started,instruct.started,trial.stopped,trials.mouse.x,trials.mouse.y,trials.mouse.leftButton,trials.mouse.midButton,trials.mouse.rightButton,trials.mouse.time,trials.mouse.clicked_name,feedback.started,fb.started,trial_counter_2.started,feedback.stopped,fb.stopped,trial_counter_2.stopped,thanks.started,endMsg.started,participant,session,date,expName,expVersion,psychopyVersion,frameRate,expStart,Unnamed: 56,thanks.stopped,Unnamed: 46,Unnamed: 44,Unnamed: 54,click_times,Unnamed: 45
Player_2,2026-02-04T15:11:57.433731,singleTarget,1.0,10.0,True,100.0,100.0,0.0,1518.0,0.0,"(178.10,333.81)",10,Single,Game,,,,,,,,,,,,,,,,,,,,,,,,,,,,,,,,,,,,,,,,,,,,,,,,,,,,,,,,,,,,,,,
Player_2,2026-02-04T15:12:07.421396,singleTarget,2.0,20.0,True,100.0,100.0,0.0,984.0,0.0,"(246.97,300.32)",10,Single,Game,,,,,,,,,,,,,,,,,,,,,,,,,,,,,,,,,,,,,,,,,,,,,,,,,,,,,,,,,,,,,,,
Player_2,2026-02-04T15:12:14.324294,singleTarget,3.0,30.0,True,100.0,100.0,0.0,1877.0,0.0,"(188.40,557.07)",10,Single,Game,,,,,,,,,,,,,,,,,,,,,,,,,,,,,,,,,,,,,,,,,,,,,,,,,,,,,,,,,,,,,,,
Player_2,2026-02-04T15:12:23.424161,singleTarget,4.0,40.0,True,100.0,100.0,0.0,3020.0,0.0,"(54.32,113.47)",10,Single,Game,,,,,,,,,,,,,,,,,,,,,,,,,,,,,,,,,,,,,,,,,,,,,,,,,,,,,,,,,,,,,,,
Player_2,2026-02-04T15:12:31.224981,singleTarget,5.0,50.0,True,100.0,100.0,0.0,1876.0,0.0,"(160.32,202.05)",10,Single,Game,,,,,,,,,,,,,,,,,,,,,,,,,,,,,,,,,,,,,,,,,,,,,,,,,,,,,,,,,,,,,,,
Player_2,2026-02-04T15:12:38.834370,singleTarget,6.0,60.0,True,100.0,100.0,0.0,1385.0,0.0,"(247.43,194.98)",10,Single,Game,,,,,,,,,,,,,,,,,,,,,,,,,,,,,,,,,,,,,,,,,,,,,,,,,,,,,,,,,,,,,,,
Player_2,2026-02-04T15:12:45.917340,singleTarget,7.0,70.0,True,100.0,100.0,0.0,1451.0,0.0,"(140.28,117.63)",10,Single,Game,,,,,,,,,,,,,,,,,,,,,,,,,,,,,,,,,,,,,,,,,,,,,,,,,,,,,,,,,,,,,,,
Player_2,2026-02-04T15:12:53.993637,singleTarget,8.0,80.0,True,100.0,100.0,0.0,2069.0,0.0,"(282.38,485.23)",10,Single,Game,,,,,,,,,,,,,,,,,,,,,,,,,,,,,,,,,,,,,,,,,,,,,,,,,,,,,,,,,,,,,,,
Player_2,2026-02-04T15:13:01.335277,singleTarget,9.0,90.0,True,100.0,100.0,0.0,2193.0,0.0,"(206.16,152.47)",10,Single,Game,,,,,,,,,,,,,,,,,,,,,,,,,,,,,,,,,,,,,,,,,,,,,,,,,,,,,,,,,,,,,,,
Player_2,2026-02-04T15:13:10.203295,singleTarget,10.0,100.0,True,100.0,100.0,0.0,3044.0,0.0,"(31.37,309.96)",10,Single,Game,,,,,,,,,,,,,,,,,,,,,,,,,,,,,,,,,,,,,,,,,,,,,,,,,,,,,,,,,,,,,,,
Player_2,2026-02-04T15:13:17.295679,singleTarget,11.0,110.0,True,100.0,100.0,0.0,1251.0,0.0,"(244.63,359.95)",10,Single,Game,,,,,,,,,,,,,,,,,,,,,,,,,,,,,,,,,,,,,,,,,,,,,,,,,,,,,,,,,,,,,,,
Player_2,2026-02-04T15:13:26.548084,singleTarget,12.0,120.0,True,100.0,100.0,0.0,4288.0,0.0,"(57.75,85.88)",10,Single,Game,,,,,,,,,,,,,,,,,,,,,,,,,,,,,,,,,,,,,,,,,,,,,,,,,,,,,,,,,,,,,,,
Player_2,2026-02-04T15:13:43.170552,singleTarget,13.0,125.0,True,50.0,100.0,1.0,11048.0,0.0,"(205.64,295.37)",10,Single,Game,,,,,,,,,,,,,,,,,,,,,,,,,,,,,,,,,,,,,,,,,,,,,,,,,,,,,,,,,,,,,,,
Player_2,2026-02-04T15:13:54.382436,singleTarget,14.0,135.0,True,100.0,100.0,0.0,3804.0,0.0,"(237.75,541.90)",10,Single,Game,,,,,,,,,,,,,,,,,,,,,,,,,,,,,,,,,,,,,,,,,,,,,,,,,,,,,,,,,,,,,,,
Player_2,2026-02-04T15:14:06.404623,singleTarget,15.0,145.0,True,100.0,100.0,0.0,4706.0,0.0,"(117.42,475.96)",10,Single,Game,,,,,,,,,,,,,,,,,,,,,,,,,,,,,,,,,,,,,,,,,,,,,,,,,,,,,,,,,,,,,,,
Player_2,2026-02-04T15:25:39.879623,singleTarget,1.0,10.0,True,100.0,100.0,0.0,1351.0,0.0,"(40.01,160.54)",11,Single,Game,,,,,,,,,,,,,,,,,,,,,,,,,,,,,,,,,,,,,,,,,,,,,,,,,,,,,,,,,,,,,,,
Player_2,2026-02-04T15:25:49.783232,singleTarget,2.0,20.0,True,100.0,100.0,0.0,1094.0,0.0,"(244.96,546.04)",11,Single,Game,,,,,,,,,,,,,,,,,,,,,,,,,,,,,,,,,,,,,,,,,,,,,,,,,,,,,,,,,,,,,,,
Player_2,2026-02-04T15:25:59.736759,singleTarget,3.0,30.0,True,100.0,100.0,0.0,1319.0,0.0,"(62.09,184.20)",11,Single,Game,,,,,,,,,,,,,,,,,,,,,,,,,,,,,,,,,,,,,,,,,,,,,,,,,,,,,,,,,,,,,,,
Player_2,2026-02-04T15:26:09.022103,singleTarget,4.0,40.0,True,100.0,100.0,0.0,2060.0,0.0,"(199.44,512.38)",11,Single,Game,,,,,,,,,,,,,,,,,,,,,,,,,,,,,,,,,,,,,,,,,,,,,,,,,,,,,,,,,,,,,,,
Player_2,2026-02-04T15:26:20.277178,singleTarget,5.0,50.0,True,100.0,100.0,0.0,1685.0,0.0,"(242.68,570.99)",11,Single,Game,,,,,,,,,,,,,,,,,,,,,,,,,,,,,,,,,,,,,,,,,,,,,,,,,,,,,,,,,,,,,,,
Player_2,2026-02-04T15:26:28.829018,singleTarget,6.0,60.0,True,100.0,100.0,0.0,1743.0,0.0,"(187.42,293.09)",11,Single,Game,,,,,,,,,,,,,,,,,,,,,,,,,,,,,,,,,,,,,,,,,,,,,,,,,,,,,,,,,,,,,,,
Player_2,2026-02-04T15:26:40.292108,singleTarget,7.0,70.0,True,100.0,100.0,0.0,4195.0,0.0,"(301.07,168.77)",11,Single,Game,,,,,,,,,,,,,,,,,,,,,,,,,,,,,,,,,,,,,,,,,,,,,,,,,,,,,,,,,,,,,,,
Player_2,2026-02-04T15:26:50.529462,singleTarget,8.0,80.0,True,100.0,100.0,0.0,1342.0,0.0,"(266.85,449.84)",11,Single,Game,,,,,,,,,,,,,,,,,,,,,,,,,,,,,,,,,,,,,,,,,,,,,,,,,,,,,,,,,,,,,,,
Player_2,2026-02-04T15:26:58.364704,singleTarget,9.0,90.0,True,100.0,100.0,0.0,1434.0,0.0,"(186.73,549.27)",11,Single,Game,,,,,,,,,,,,,,,,,,,,,,,,,,,,,,,,,,,,,,,,,,,,,,,,,,,,,,,,,,,,,,,
Player_2,2026-02-04T15:27:06.648918,singleTarget,10.0,100.0,True,100.0,100.0,0.0,1785.0,0.0,"(71.59,287.32)",11,Single,Game,,,,,,,,,,,,,,,,,,,,,,,,,,,,,,,,,,,,,,,,,,,,,,,,,,,,,,,,,,,,,,,
Player_2,2026-02-04T15:27:14.614697,singleTarget,11.0,110.0,True,100.0,100.0,0.0,1183.0,0.0,"(304.69,527.52)",11,Single,Game,,,,,,,,,,,,,,,,,,,,,,,,,,,,,,,,,,,,,,,,,,,,,,,,,,,,,,,,,,,,,,,
Player_2,2026-02-04T15:27:21.916711,singleTarget,12.0,120.0,True,100.0,100.0,0.0,1618.0,0.0,"(253.76,288.03)",11,Single,Game,,,,,,,,,,,,,,,,,,,,,,,,,,,,,,,,,,,,,,,,,,,,,,,,,,,,,,,,,,,,,,,
Player_2,2026-02-04T15:27:37.267527,singleTarget,13.0,130.0,True,100.0,100.0,0.0,6482.0,0.0,"(230.78,134.90)",11,Single,Game,,,,,,,,,,,,,,,,,,,,,,,,,,,,,,,,,,,,,,,,,,,,,,,,,,,,,,,,,,,,,,,
Player_2,2026-02-04T15:27:54.329579,singleTarget,14.0,140.0,True,100.0,100.0,0.0,4781.0,0.0,"(164.82,165.93)",11,Single,Game,,,,,,,,,,,,,,,,,,,,,,,,,,,,,,,,,,,,,,,,,,,,,,,,,,,,,,,,,,,,,,,
Player_2,2026-02-04T15:28:09.931855,singleTarget,15.0,150.0,True,100.0,100.0,0.0,6993.0,0.0,"(194.52,384.37)",11,Single,Game,,,,,,,,,,,,,,,,,,,,,,,,,,,,,,,,,,,,,,,,,,,,,,,,,,,,,,,,,,,,,,,
Player_2,2026-02-04T16:02:20.223822,singleTarget,1.0,10.0,True,100.0,100.0,0.0,1946.0,0.0,"(112.90,500.00)",12,Single,Game,,,,,,,,,,,,,,,,,,,,,,,,,,,,,,,,,,,,,,,,,,,,,,,,,,,,,,,,,,,,,,,
Player_2,2026-02-04T16:02:34.024334,singleTarget,2.0,20.0,True,100.0,100.0,0.0,1152.0,0.0,"(32.35,587.37)",12,Single,Game,,,,,,,,,,,,,,,,,,,,,,,,,,,,,,,,,,,,,,,,,,,,,,,,,,,,,,,,,,,,,,,
Player_2,2026-02-04T16:02:41.568879,singleTarget,3.0,30.0,True,100.0,100.0,0.0,1504.0,0.0,"(54.59,224.95)",12,Single,Game,,,,,,,,,,,,,,,,,,,,,,,,,,,,,,,,,,,,,,,,,,,,,,,,,,,,,,,,,,,,,,,
Player_2,2026-02-04T16:02:49.774921,singleTarget,4.0,40.0,True,100.0,100.0,0.0,1588.0,0.0,"(104.93,244.31)",12,Single,Game,,,,,,,,,,,,,,,,,,,,,,,,,,,,,,,,,,,,,,,,,,,,,,,,,,,,,,,,,,,,,,,
Player_2,2026-02-04T16:03:00.662522,singleTarget,5.0,50.0,True,100.0,100.0,0.0,1608.0,0.0,"(216.04,69.07)",12,Single,Game,,,,,,,,,,,,,,,,,,,,,,,,,,,,,,,,,,,,,,,,,,,,,,,,,,,,,,,,,,,,,,,
Player_2,2026-02-04T16:03:09.186923,singleTarget,6.0,60.0,True,100.0,100.0,0.0,1874.0,0.0,"(165.06,493.13)",12,Single,Game,,,,,,,,,,,,,,,,,,,,,,,,,,,,,,,,,,,,,,,,,,,,,,,,,,,,,,,,,,,,,,,
Player_2,2026-02-04T16:03:25.111757,singleTarget,7.0,60.0,True,33.33,100.0,2.0,8763.0,0.0,"(171.68,502.11)",12,Single,Game,,,,,,,,,,,,,,,,,,,,,,,,,,,,,,,,,,,,,,,,,,,,,,,,,,,,,,,,,,,,,,,
Player_2,2026-02-04T16:03:35.036633,singleTarget,8.0,70.0,True,100.0,100.0,0.0,1363.0,0.0,"(69.58,103.61)",12,Single,Game,,,,,,,,,,,,,,,,,,,,,,,,,,,,,,,,,,,,,,,,,,,,,,,,,,,,,,,,,,,,,,,
Player_2,2026-02-04T16:03:44.167313,singleTarget,9.0,80.0,True,100.0,100.0,0.0,1227.0,0.0,"(228.21,309.24)",12,Single,Game,,,,,,,,,,,,,,,,,,,,,,,,,,,,,,,,,,,,,,,,,,,,,,,,,,,,,,,,,,,,,,,
Player_2,2026-02-04T16:03:58.151774,singleTarget,10.0,80.0,True,33.33,100.0,2.0,6500.0,0.0,"(238.40,502.86)",12,Single,Game,,,,,,,,,,,,,,,,,,,,,,,,,,,,,,,,,,,,,,,,,,,,,,,,,,,,,,,,,,,,,,,
Player_2,2026-02-04T16:04:11.031816,singleTarget,11.0,90.0,True,100.0,100.0,0.0,1632.0,0.0,"(183.13,347.72)",12,Single,Game,,,,,,,,,,,,,,,,,,,,,,,,,,,,,,,,,,,,,,,,,,,,,,,,,,,,,,,,,,,,,,,
Player_2,2026-02-04T16:04:18.379153,singleTarget,12.0,100.0,True,100.0,100.0,0.0,1306.0,0.0,"(160.58,252.43)",12,Single,Game,,,,,,,,,,,,,,,,,,,,,,,,,,,,,,,,,,,,,,,,,,,,,,,,,,,,,,,,,,,,,,,
Player_2,2026-02-04T16:04:31.264483,singleTarget,13.0,110.0,True,100.0,100.0,0.0,5110.0,0.0,"(87.39,432.62)",12,Single,Game,,,,,,,,,,,,,,,,,,,,,,,,,,,,,,,,,,,,,,,,,,,,,,,,,,,,,,,,,,,,,,,
Player_2,2026-02-04T16:04:40.508633,singleTarget,14.0,120.0,True,100.0,100.0,0.0,1479.0,0.0,"(128.29,214.10)",12,Single,Game,,,,,,,,,,,,,,,,,,,,,,,,,,,,,,,,,,,,,,,,,,,,,,,,,,,,,,,,,,,,,,,
Player_2,2026-02-04T16:04:52.414575,singleTarget,15.0,130.0,True,100.0,100.0,0.0,2688.0,0.0,"(223.31,416.51)",12,Single,Game,,,,,,,,,,,,,,,,,,,,,,,,,,,,,,,,,,,,,,,,,,,,,,,,,,,,,,,,,,,,,,,
Player_2,2026-02-04T16:59:27.625165,singleTarget,1.0,10.0,True,100.0,100.0,0.0,1846.0,0.0,"(148.21,304.34)",13,Single,Game,,,,,,,,,,,,,,,,,,,,,,,,,,,,,,,,,,,,,,,,,,,,,,,,,,,,,,,,,,,,,,,
Player_2,2026-02-04T16:59:37.863423,singleTarget,2.0,20.0,True,100.0,100.0,0.0,1317.0,0.0,"(115.42,33.95)",13,Single,Game,,,,,,,,,,,,,,,,,,,,,,,,,,,,,,,,,,,,,,,,,,,,,,,,,,,,,,,,,,,,,,,
Player_2,2026-02-04T16:59:46.722278,singleTarget,3.0,30.0,True,100.0,100.0,0.0,1475.0,0.0,"(180.38,248.85)",13,Single,Game,,,,,,,,,,,,,,,,,,,,,,,,,,,,,,,,,,,,,,,,,,,,,,,,,,,,,,,,,,,,,,,
Player_2,2026-02-04T17:00:01.066628,singleTarget,4.0,40.0,True,100.0,100.0,0.0,2114.0,0.0,"(53.23,136.90)",13,Single,Game,,,,,,,,,,,,,,,,,,,,,,,,,,,,,,,,,,,,,,,,,,,,,,,,,,,,,,,,,,,,,,,
Player_2,2026-02-04T17:00:16.472879,singleTarget,5.0,50.0,True,100.0,100.0,0.0,1585.0,0.0,"(281.95,119.59)",13,Single,Game,,,,,,,,,,,,,,,,,,,,,,,,,,,,,,,,,,,,,,,,,,,,,,,,,,,,,,,,,,,,,,,
Player_2,2026-02-04T17:00:26.842611,singleTarget,6.0,60.0,True,100.0,100.0,0.0,1189.0,0.0,"(266.95,209.16)",13,Single,Game,,,,,,,,,,,,,,,,,,,,,,,,,,,,,,,,,,,,,,,,,,,,,,,,,,,,,,,,,,,,,,,
Player_2,2026-02-04T17:00:38.215444,singleTarget,7.0,70.0,True,100.0,100.0,0.0,2847.0,0.0,"(290.06,538.24)",13,Single,Game,,,,,,,,,,,,,,,,,,,,,,,,,,,,,,,,,,,,,,,,,,,,,,,,,,,,,,,,,,,,,,,
Player_2,2026-02-04T17:00:49.322034,singleTarget,8.0,80.0,True,100.0,100.0,0.0,2171.0,0.0,"(274.71,326.37)",13,Single,Game,,,,,,,,,,,,,,,,,,,,,,,,,,,,,,,,,,,,,,,,,,,,,,,,,,,,,,,,,,,,,,,
Player_2,2026-02-04T17:00:58.705808,singleTarget,9.0,90.0,True,100.0,100.0,0.0,1347.0,0.0,"(196.80,257.19)",13,Single,Game,,,,,,,,,,,,,,,,,,,,,,,,,,,,,,,,,,,,,,,,,,,,,,,,,,,,,,,,,,,,,,,
Player_2,2026-02-04T17:01:08.065881,singleTarget,10.0,100.0,True,100.0,100.0,0.0,2131.0,0.0,"(124.99,81.10)",13,Single,Game,,,,,,,,,,,,,,,,,,,,,,,,,,,,,,,,,,,,,,,,,,,,,,,,,,,,,,,,,,,,,,,
Player_2,2026-02-04T17:01:19.685428,singleTarget,11.0,110.0,True,100.0,100.0,0.0,2389.0,0.0,"(126.57,46.10)",13,Single,Game,,,,,,,,,,,,,,,,,,,,,,,,,,,,,,,,,,,,,,,,,,,,,,,,,,,,,,,,,,,,,,,
Player_2,2026-02-04T17:01:32.197782,singleTarget,12.0,120.0,True,100.0,100.0,0.0,5179.0,0.0,"(226.81,93.14)",13,Single,Game,,,,,,,,,,,,,,,,,,,,,,,,,,,,,,,,,,,,,,,,,,,,,,,,,,,,,,,,,,,,,,,
Player_2,2026-02-04T17:01:47.809966,singleTarget,13.0,130.0,True,100.0,100.0,0.0,8125.0,0.0,"(100.68,30.27)",13,Single,Game,,,,,,,,,,,,,,,,,,,,,,,,,,,,,,,,,,,,,,,,,,,,,,,,,,,,,,,,,,,,,,,
Player_2,2026-02-04T17:01:58.425847,singleTarget,14.0,140.0,True,100.0,100.0,0.0,1577.0,0.0,"(180.02,36.47)",13,Single,Game,,,,,,,,,,,,,,,,,,,,,,,,,,,,,,,,,,,,,,,,,,,,,,,,,,,,,,,,,,,,,,,
Player_2,2026-02-04T17:02:15.566006,singleTarget,15.0,150.0,True,100.0,100.0,0.0,8210.0,0.0,"(122.32,218.56)",13,Single,Game,,,,,,,,,,,,,,,,,,,,,,,,,,,,,,,,,,,,,,,,,,,,,,,,,,,,,,,,,,,,,,,
Player_2,2026-02-05T15:03:27.441253,singleTarget,1.0,10.0,True,100.0,100.0,0.0,1452.0,0.0,"(83.50,78.67)",14,Single,Game,,,,,,,,,,,,,,,,,,,,,,,,,,,,,,,,,,,,,,,,,,,,,,,,,,,,,,,,,,,,,,,
Player_2,2026-02-05T15:03:37.515402,singleTarget,2.0,20.0,True,100.0,100.0,0.0,864.0,0.0,"(195.39,216.90)",14,Single,Game,,,,,,,,,,,,,,,,,,,,,,,,,,,,,,,,,,,,,,,,,,,,,,,,,,,,,,,,,,,,,,,
Player_2,2026-02-05T15:03:53.509372,singleTarget,3.0,30.0,True,100.0,100.0,0.0,1195.0,0.0,"(188.65,79.72)",14,Single,Game,,,,,,,,,,,,,,,,,,,,,,,,,,,,,,,,,,,,,,,,,,,,,,,,,,,,,,,,,,,,,,,
Player_2,2026-02-05T15:04:09.314087,singleTarget,4.0,40.0,True,100.0,100.0,0.0,3023.0,0.0,"(183.28,531.26)",14,Single,Game,,,,,,,,,,,,,,,,,,,,,,,,,,,,,,,,,,,,,,,,,,,,,,,,,,,,,,,,,,,,,,,
Player_2,2026-02-05T15:04:28.934210,singleTarget,5.0,50.0,True,100.0,100.0,0.0,1205.0,0.0,"(84.16,79.50)",14,Single,Game,,,,,,,,,,,,,,,,,,,,,,,,,,,,,,,,,,,,,,,,,,,,,,,,,,,,,,,,,,,,,,,
Player_2,2026-02-05T15:04:37.389304,singleTarget,6.0,60.0,True,100.0,100.0,0.0,1451.0,0.0,"(232.43,555.47)",14,Single,Game,,,,,,,,,,,,,,,,,,,,,,,,,,,,,,,,,,,,,,,,,,,,,,,,,,,,,,,,,,,,,,,
Player_2,2026-02-05T15:04:47.156396,singleTarget,7.0,70.0,True,100.0,100.0,0.0,1799.0,0.0,"(183.72,535.20)",14,Single,Game,,,,,,,,,,,,,,,,,,,,,,,,,,,,,,,,,,,,,,,,,,,,,,,,,,,,,,,,,,,,,,,
Player_2,2026-02-05T15:04:58.638128,singleTarget,8.0,80.0,True,100.0,100.0,0.0,1900.0,0.0,"(85.90,110.42)",14,Single,Game,,,,,,,,,,,,,,,,,,,,,,,,,,,,,,,,,,,,,,,,,,,,,,,,,,,,,,,,,,,,,,,
Player_2,2026-02-05T15:05:07.151965,singleTarget,9.0,90.0,True,100.0,100.0,0.0,1190.0,0.0,"(37.04,166.84)",14,Single,Game,,,,,,,,,,,,,,,,,,,,,,,,,,,,,,,,,,,,,,,,,,,,,,,,,,,,,,,,,,,,,,,
Player_2,2026-02-05T15:05:22.972645,singleTarget,10.0,100.0,True,100.0,100.0,0.0,7810.0,0.0,"(269.49,272.62)",14,Single,Game,,,,,,,,,,,,,,,,,,,,,,,,,,,,,,,,,,,,,,,,,,,,,,,,,,,,,,,,,,,,,,,
Player_2,2026-02-05T15:05:39.235449,singleTarget,11.0,110.0,True,100.0,100.0,0.0,7788.0,0.0,"(184.10,394.89)",14,Single,Game,,,,,,,,,,,,,,,,,,,,,,,,,,,,,,,,,,,,,,,,,,,,,,,,,,,,,,,,,,,,,,,
Player_2,2026-02-05T15:05:49.581820,singleTarget,12.0,120.0,True,100.0,100.0,0.0,2125.0,0.0,"(150.03,411.53)",14,Single,Game,,,,,,,,,,,,,,,,,,,,,,,,,,,,,,,,,,,,,,,,,,,,,,,,,,,,,,,,,,,,,,,
Player_2,2026-02-05T15:06:04.878178,singleTarget,13.0,130.0,True,100.0,100.0,0.0,7396.0,0.0,"(277.72,231.44)",14,Single,Game,,,,,,,,,,,,,,,,,,,,,,,,,,,,,,,,,,,,,,,,,,,,,,,,,,,,,,,,,,,,,,,
Player_2,2026-02-05T15:06:20.815941,singleTarget,14.0,135.0,True,50.0,100.0,1.0,5879.0,0.0,"(36.36,273.45)",14,Single,Game,,,,,,,,,,,,,,,,,,,,,,,,,,,,,,,,,,,,,,,,,,,,,,,,,,,,,,,,,,,,,,,
Player_2,2026-02-05T15:06:41.896373,singleTarget,15.0,140.0,True,50.0,100.0,1.0,11831.0,0.0,"(210.98,135.83)",14,Single,Game,,,,,,,,,,,,,,,,,,,,,,,,,,,,,,,,,,,,,,,,,,,,,,,,,,,,,,,,,,,,,,,
Player_2,2026-02-05T17:13:57.994345,singleTarget,1.0,10.0,True,100.0,100.0,0.0,1235.0,0.0,"(267.17,513.71)",15,Single,Game,,,,,,,,,,,,,,,,,,,,,,,,,,,,,,,,,,,,,,,,,,,,,,,,,,,,,,,,,,,,,,,
Player_2,2026-02-05T17:14:05.428486,singleTarget,2.0,20.0,True,100.0,100.0,0.0,1035.0,0.0,"(236.06,235.15)",15,Single,Game,,,,,,,,,,,,,,,,,,,,,,,,,,,,,,,,,,,,,,,,,,,,,,,,,,,,,,,,,,,,,,,
Player_2,2026-02-05T17:14:12.303882,singleTarget,3.0,30.0,True,100.0,100.0,0.0,1285.0,0.0,"(109.78,323.84)",15,Single,Game,,,,,,,,,,,,,,,,,,,,,,,,,,,,,,,,,,,,,,,,,,,,,,,,,,,,,,,,,,,,,,,
Player_2,2026-02-05T17:14:25.887348,singleTarget,4.0,40.0,True,100.0,100.0,0.0,3320.0,0.0,"(81.11,569.70)",15,Single,Game,,,,,,,,,,,,,,,,,,,,,,,,,,,,,,,,,,,,,,,,,,,,,,,,,,,,,,,,,,,,,,,
Player_2,2026-02-05T17:14:37.828007,singleTarget,5.0,50.0,True,100.0,100.0,0.0,1702.0,0.0,"(221.73,506.30)",15,Single,Game,,,,,,,,,,,,,,,,,,,,,,,,,,,,,,,,,,,,,,,,,,,,,,,,,,,,,,,,,,,,,,,
Player_2,2026-02-05T17:14:47.183229,singleTarget,6.0,60.0,True,100.0,100.0,0.0,1544.0,0.0,"(99.63,565.37)",15,Single,Game,,,,,,,,,,,,,,,,,,,,,,,,,,,,,,,,,,,,,,,,,,,,,,,,,,,,,,,,,,,,,,,
Player_2,2026-02-05T17:14:59.166290,singleTarget,7.0,70.0,True,100.0,100.0,0.0,1602.0,0.0,"(147.92,345.00)",15,Single,Game,,,,,,,,,,,,,,,,,,,,,,,,,,,,,,,,,,,,,,,,,,,,,,,,,,,,,,,,,,,,,,,
Player_2,2026-02-05T17:15:08.144171,singleTarget,8.0,80.0,True,100.0,100.0,0.0,1293.0,0.0,"(99.14,215.18)",15,Single,Game,,,,,,,,,,,,,,,,,,,,,,,,,,,,,,,,,,,,,,,,,,,,,,,,,,,,,,,,,,,,,,,
Player_2,2026-02-05T17:15:16.446362,singleTarget,9.0,90.0,True,100.0,100.0,0.0,1668.0,0.0,"(292.75,606.81)",15,Single,Game,,,,,,,,,,,,,,,,,,,,,,,,,,,,,,,,,,,,,,,,,,,,,,,,,,,,,,,,,,,,,,,
Player_2,2026-02-05T17:15:29.673402,singleTarget,10.0,100.0,True,100.0,100.0,0.0,5542.0,0.0,"(55.68,329.62)",15,Single,Game,,,,,,,,,,,,,,,,,,,,,,,,,,,,,,,,,,,,,,,,,,,,,,,,,,,,,,,,,,,,,,,
Player_2,2026-02-05T17:15:39.486842,singleTarget,11.0,110.0,True,100.0,100.0,0.0,2419.0,0.0,"(119.99,467.08)",15,Single,Game,,,,,,,,,,,,,,,,,,,,,,,,,,,,,,,,,,,,,,,,,,,,,,,,,,,,,,,,,,,,,,,
Player_2,2026-02-05T17:15:49.633240,singleTarget,12.0,120.0,True,100.0,100.0,0.0,2472.0,0.0,"(67.88,557.36)",15,Single,Game,,,,,,,,,,,,,,,,,,,,,,,,,,,,,,,,,,,,,,,,,,,,,,,,,,,,,,,,,,,,,,,
Player_2,2026-02-05T17:16:11.504796,singleTarget,13.0,100.0,False,20.0,0.0,4.0,0.0,0.0,,15,Single,Game,,,,,,,,,,,,,,,,,,,,,,,,,,,,,,,,,,,,,,,,,,,,,,,,,,,,,,,,,,,,,,,
Player_2,2026-02-05T17:16:26.789290,singleTarget,13.0,10.0,True,100.0,100.0,0.0,2994.0,0.0,"(228.49,510.55)",15,Single,Game,,,,,,,,,,,,,,,,,,,,,,,,,,,,,,,,,,,,,,,,,,,,,,,,,,,,,,,,,,,,,,,
Player_2,2026-02-05T17:16:38.381478,singleTarget,14.0,20.0,True,100.0,100.0,0.0,2137.0,0.0,"(250.75,418.80)",15,Single,Game,,,,,,,,,,,,,,,,,,,,,,,,,,,,,,,,,,,,,,,,,,,,,,,,,,,,,,,,,,,,,,,
Player_2,2026-02-05T17:16:51.047528,singleTarget,15.0,30.0,True,100.0,100.0,0.0,3621.0,0.0,"(238.93,277.31)",15,Single,Game,,,,,,,,,,,,,,,,,,,,,,,,,,,,,,,,,,,,,,,,,,,,,,,,,,,,,,,,,,,,,,,
Player_2,2026-02-05T17:25:43.001110,singleTarget,1.0,10.0,True,100.0,100.0,0.0,1176.0,0.0,"(43.26,484.98)",16,Single,Game,,,,,,,,,,,,,,,,,,,,,,,,,,,,,,,,,,,,,,,,,,,,,,,,,,,,,,,,,,,,,,,
Player_2,2026-02-05T17:25:52.523607,singleTarget,2.0,20.0,True,100.0,100.0,0.0,1209.0,0.0,"(102.05,575.90)",16,Single,Game,,,,,,,,,,,,,,,,,,,,,,,,,,,,,,,,,,,,,,,,,,,,,,,,,,,,,,,,,,,,,,,
Player_2,2026-02-05T17:26:02.020681,singleTarget,3.0,30.0,True,100.0,100.0,0.0,1528.0,0.0,"(303.25,307.76)",16,Single,Game,,,,,,,,,,,,,,,,,,,,,,,,,,,,,,,,,,,,,,,,,,,,,,,,,,,,,,,,,,,,,,,
Player_2,2026-02-05T17:26:12.675599,singleTarget,4.0,40.0,True,100.0,100.0,0.0,2169.0,0.0,"(134.23,43.62)",16,Single,Game,,,,,,,,,,,,,,,,,,,,,,,,,,,,,,,,,,,,,,,,,,,,,,,,,,,,,,,,,,,,,,,
Player_2,2026-02-05T17:26:27.195324,singleTarget,5.0,50.0,True,100.0,100.0,0.0,1886.0,0.0,"(252.18,555.72)",16,Single,Game,,,,,,,,,,,,,,,,,,,,,,,,,,,,,,,,,,,,,,,,,,,,,,,,,,,,,,,,,,,,,,,
Player_2,2026-02-05T17:26:33.886009,singleTarget,6.0,60.0,True,100.0,100.0,0.0,1559.0,0.0,"(34.79,118.76)",16,Single,Game,,,,,,,,,,,,,,,,,,,,,,,,,,,,,,,,,,,,,,,,,,,,,,,,,,,,,,,,,,,,,,,
Player_2,2026-02-05T17:26:45.266221,singleTarget,7.0,70.0,True,100.0,100.0,0.0,4111.0,0.0,"(232.16,502.52)",16,Single,Game,,,,,,,,,,,,,,,,,,,,,,,,,,,,,,,,,,,,,,,,,,,,,,,,,,,,,,,,,,,,,,,
Player_2,2026-02-05T17:26:58.376645,singleTarget,8.0,80.0,True,100.0,100.0,0.0,1510.0,0.0,"(174.39,246.61)",16,Single,Game,,,,,,,,,,,,,,,,,,,,,,,,,,,,,,,,,,,,,,,,,,,,,,,,,,,,,,,,,,,,,,,
Player_2,2026-02-05T17:27:06.268686,singleTarget,9.0,90.0,True,100.0,100.0,0.0,1618.0,0.0,"(125.47,86.59)",16,Single,Game,,,,,,,,,,,,,,,,,,,,,,,,,,,,,,,,,,,,,,,,,,,,,,,,,,,,,,,,,,,,,,,
Player_2,2026-02-05T17:27:15.722851,singleTarget,10.0,100.0,True,100.0,100.0,0.0,3154.0,0.0,"(149.96,165.14)",16,Single,Game,,,,,,,,,,,,,,,,,,,,,,,,,,,,,,,,,,,,,,,,,,,,,,,,,,,,,,,,,,,,,,,
Player_2,2026-02-05T17:27:24.143635,singleTarget,11.0,110.0,True,100.0,100.0,0.0,1251.0,0.0,"(46.26,306.77)",16,Single,Game,,,,,,,,,,,,,,,,,,,,,,,,,,,,,,,,,,,,,,,,,,,,,,,,,,,,,,,,,,,,,,,
Player_2,2026-02-05T17:27:30.409868,singleTarget,12.0,120.0,True,100.0,100.0,0.0,1735.0,0.0,"(134.17,285.53)",16,Single,Game,,,,,,,,,,,,,,,,,,,,,,,,,,,,,,,,,,,,,,,,,,,,,,,,,,,,,,,,,,,,,,,
Player_2,2026-02-05T17:27:43.112696,singleTarget,13.0,130.0,True,100.0,100.0,0.0,5859.0,0.0,"(148.13,280.31)",16,Single,Game,,,,,,,,,,,,,,,,,,,,,,,,,,,,,,,,,,,,,,,,,,,,,,,,,,,,,,,,,,,,,,,
Player_2,2026-02-05T17:27:55.727034,singleTarget,14.0,140.0,True,100.0,100.0,0.0,4963.0,0.0,"(211.27,597.33)",16,Single,Game,,,,,,,,,,,,,,,,,,,,,,,,,,,,,,,,,,,,,,,,,,,,,,,,,,,,,,,,,,,,,,,
Player_2,2026-02-05T17:28:07.777380,singleTarget,15.0,150.0,True,100.0,100.0,0.0,6726.0,0.0,"(30.77,477.79)",16,Single,Game,,,,,,,,,,,,,,,,,,,,,,,,,,,,,,,,,,,,,,,,,,,,,,,,,,,,,,,,,,,,,,,
Player_2,2026-02-05T18:06:35.435837,singleTarget,1.0,10.0,True,100.0,100.0,0.0,1242.0,0.0,"(229.06,177.30)",17,Single,Game,,,,,,,,,,,,,,,,,,,,,,,,,,,,,,,,,,,,,,,,,,,,,,,,,,,,,,,,,,,,,,,
Player_2,2026-02-05T18:06:47.524469,singleTarget,2.0,20.0,True,100.0,100.0,0.0,1155.0,0.0,"(70.93,461.49)",17,Single,Game,,,,,,,,,,,,,,,,,,,,,,,,,,,,,,,,,,,,,,,,,,,,,,,,,,,,,,,,,,,,,,,
Player_2,2026-02-05T18:06:55.715617,singleTarget,3.0,30.0,True,100.0,100.0,0.0,1205.0,0.0,"(188.04,265.32)",17,Single,Game,,,,,,,,,,,,,,,,,,,,,,,,,,,,,,,,,,,,,,,,,,,,,,,,,,,,,,,,,,,,,,,
Player_2,2026-02-05T18:07:05.053852,singleTarget,4.0,40.0,True,100.0,100.0,0.0,1694.0,0.0,"(167.13,38.88)",17,Single,Game,,,,,,,,,,,,,,,,,,,,,,,,,,,,,,,,,,,,,,,,,,,,,,,,,,,,,,,,,,,,,,,
Player_2,2026-02-05T18:07:16.190459,singleTarget,5.0,50.0,True,100.0,100.0,0.0,1514.0,0.0,"(177.75,301.41)",17,Single,Game,,,,,,,,,,,,,,,,,,,,,,,,,,,,,,,,,,,,,,,,,,,,,,,,,,,,,,,,,,,,,,,
Player_2,2026-02-05T18:07:25.637549,singleTarget,6.0,60.0,True,100.0,100.0,0.0,1991.0,0.0,"(146.54,64.70)",17,Single,Game,,,,,,,,,,,,,,,,,,,,,,,,,,,,,,,,,,,,,,,,,,,,,,,,,,,,,,,,,,,,,,,
Player_2,2026-02-05T18:07:33.851252,singleTarget,7.0,70.0,True,100.0,100.0,0.0,2309.0,0.0,"(233.66,94.51)",17,Single,Game,,,,,,,,,,,,,,,,,,,,,,,,,,,,,,,,,,,,,,,,,,,,,,,,,,,,,,,,,,,,,,,
Player_2,2026-02-05T18:07:42.715589,singleTarget,8.0,80.0,True,100.0,100.0,0.0,1499.0,0.0,"(180.69,371.48)",17,Single,Game,,,,,,,,,,,,,,,,,,,,,,,,,,,,,,,,,,,,,,,,,,,,,,,,,,,,,,,,,,,,,,,
Player_2,2026-02-05T18:07:50.402420,singleTarget,9.0,90.0,True,100.0,100.0,0.0,1185.0,0.0,"(245.26,338.46)",17,Single,Game,,,,,,,,,,,,,,,,,,,,,,,,,,,,,,,,,,,,,,,,,,,,,,,,,,,,,,,,,,,,,,,
Player_2,2026-02-05T18:08:03.030020,singleTarget,10.0,100.0,True,100.0,100.0,0.0,5281.0,0.0,"(73.35,184.69)",17,Single,Game,,,,,,,,,,,,,,,,,,,,,,,,,,,,,,,,,,,,,,,,,,,,,,,,,,,,,,,,,,,,,,,
Player_2,2026-02-05T18:08:11.910257,singleTarget,11.0,110.0,True,100.0,100.0,0.0,1959.0,0.0,"(149.62,341.54)",17,Single,Game,,,,,,,,,,,,,,,,,,,,,,,,,,,,,,,,,,,,,,,,,,,,,,,,,,,,,,,,,,,,,,,
Player_2,2026-02-05T18:08:21.575521,singleTarget,12.0,120.0,True,100.0,100.0,0.0,2238.0,0.0,"(284.92,328.95)",17,Single,Game,,,,,,,,,,,,,,,,,,,,,,,,,,,,,,,,,,,,,,,,,,,,,,,,,,,,,,,,,,,,,,,
Player_2,2026-02-05T18:08:30.040341,singleTarget,13.0,130.0,True,100.0,100.0,0.0,1571.0,0.0,"(82.89,225.56)",17,Single,Game,,,,,,,,,,,,,,,,,,,,,,,,,,,,,,,,,,,,,,,,,,,,,,,,,,,,,,,,,,,,,,,
Player_2,2026-02-05T18:08:37.551947,singleTarget,14.0,140.0,True,100.0,100.0,0.0,1386.0,0.0,"(242.91,377.89)",17,Single,Game,,,,,,,,,,,,,,,,,,,,,,,,,,,,,,,,,,,,,,,,,,,,,,,,,,,,,,,,,,,,,,,
Player_2,2026-02-05T18:08:54.731465,singleTarget,15.0,150.0,True,100.0,100.0,0.0,10172.0,0.0,"(250.16,93.36)",17,Single,Game,,,,,,,,,,,,,,,,,,,,,,,,,,,,,,,,,,,,,,,,,,,,,,,,,,,,,,,,,,,,,,,
Player_2,2026-02-05T19:03:26.244560,singleTarget,1.0,10.0,True,100.0,100.0,0.0,1822.0,0.0,"(210.17,155.33)",18,Single,Game,,,,,,,,,,,,,,,,,,,,,,,,,,,,,,,,,,,,,,,,,,,,,,,,,,,,,,,,,,,,,,,
Player_2,2026-02-05T19:03:37.093363,singleTarget,2.0,20.0,True,100.0,100.0,0.0,1352.0,0.0,"(121.85,455.53)",18,Single,Game,,,,,,,,,,,,,,,,,,,,,,,,,,,,,,,,,,,,,,,,,,,,,,,,,,,,,,,,,,,,,,,
Player_2,2026-02-05T19:03:54.224929,singleTarget,3.0,30.0,True,100.0,100.0,0.0,1892.0,0.0,"(195.14,537.62)",18,Single,Game,,,,,,,,,,,,,,,,,,,,,,,,,,,,,,,,,,,,,,,,,,,,,,,,,,,,,,,,,,,,,,,
Player_2,2026-02-05T19:04:08.997187,singleTarget,4.0,40.0,True,100.0,100.0,0.0,2198.0,0.0,"(68.52,448.10)",18,Single,Game,,,,,,,,,,,,,,,,,,,,,,,,,,,,,,,,,,,,,,,,,,,,,,,,,,,,,,,,,,,,,,,
Player_2,2026-02-05T19:04:23.796409,singleTarget,5.0,50.0,True,100.0,100.0,0.0,1443.0,0.0,"(273.27,149.98)",18,Single,Game,,,,,,,,,,,,,,,,,,,,,,,,,,,,,,,,,,,,,,,,,,,,,,,,,,,,,,,,,,,,,,,
Player_2,2026-02-05T19:04:39.947254,singleTarget,6.0,60.0,True,100.0,100.0,0.0,1726.0,0.0,"(146.93,516.03)",18,Single,Game,,,,,,,,,,,,,,,,,,,,,,,,,,,,,,,,,,,,,,,,,,,,,,,,,,,,,,,,,,,,,,,
Player_2,2026-02-05T19:04:51.403983,singleTarget,7.0,70.0,True,100.0,100.0,0.0,3425.0,0.0,"(281.72,286.78)",18,Single,Game,,,,,,,,,,,,,,,,,,,,,,,,,,,,,,,,,,,,,,,,,,,,,,,,,,,,,,,,,,,,,,,
Player_2,2026-02-05T19:05:00.324531,singleTarget,8.0,80.0,True,100.0,100.0,0.0,1485.0,0.0,"(260.36,248.86)",18,Single,Game,,,,,,,,,,,,,,,,,,,,,,,,,,,,,,,,,,,,,,,,,,,,,,,,,,,,,,,,,,,,,,,
Player_2,2026-02-05T19:05:07.894267,singleTarget,9.0,90.0,True,100.0,100.0,0.0,1523.0,0.0,"(111.06,343.58)",18,Single,Game,,,,,,,,,,,,,,,,,,,,,,,,,,,,,,,,,,,,,,,,,,,,,,,,,,,,,,,,,,,,,,,
Player_2,2026-02-05T19:05:31.782800,singleTarget,10.0,90.0,False,100.0,0.0,0.0,0.0,0.0,,18,Single,Game,,,,,,,,,,,,,,,,,,,,,,,,,,,,,,,,,,,,,,,,,,,,,,,,,,,,,,,,,,,,,,,
Player_2,2026-02-05T19:05:49.902514,singleTarget,10.0,10.0,True,100.0,100.0,0.0,6598.0,0.0,"(61.73,201.81)",18,Single,Game,,,,,,,,,,,,,,,,,,,,,,,,,,,,,,,,,,,,,,,,,,,,,,,,,,,,,,,,,,,,,,,
Player_2,2026-02-05T19:06:03.000680,singleTarget,11.0,20.0,True,100.0,100.0,0.0,4187.0,0.0,"(169.05,499.50)",18,Single,Game,,,,,,,,,,,,,,,,,,,,,,,,,,,,,,,,,,,,,,,,,,,,,,,,,,,,,,,,,,,,,,,
Player_2,2026-02-05T19:06:11.344393,singleTarget,12.0,30.0,True,100.0,100.0,0.0,1982.0,0.0,"(87.40,256.00)",18,Single,Game,,,,,,,,,,,,,,,,,,,,,,,,,,,,,,,,,,,,,,,,,,,,,,,,,,,,,,,,,,,,,,,
Player_2,2026-02-05T19:06:28.220455,singleTarget,13.0,40.0,True,100.0,100.0,0.0,2292.0,0.0,"(78.20,406.93)",18,Single,Game,,,,,,,,,,,,,,,,,,,,,,,,,,,,,,,,,,,,,,,,,,,,,,,,,,,,,,,,,,,,,,,
Player_2,2026-02-05T19:06:42.175070,singleTarget,14.0,45.0,True,50.0,100.0,1.0,6385.0,0.0,"(191.55,286.24)",18,Single,Game,,,,,,,,,,,,,,,,,,,,,,,,,,,,,,,,,,,,,,,,,,,,,,,,,,,,,,,,,,,,,,,
Player_2,2026-02-05T19:06:56.414115,singleTarget,15.0,55.0,True,100.0,100.0,0.0,3558.0,0.0,"(247.02,95.44)",18,Single,Game,,,,,,,,,,,,,,,,,,,,,,,,,,,,,,,,,,,,,,,,,,,,,,,,,,,,,,,,,,,,,,,
Player_2,2026-02-05T20:06:07.475060,singleTarget,1.0,10.0,True,100.0,100.0,0.0,2082.0,0.0,"(91.00,186.88)",19,Single,Game,,,,,,,,,,,,,,,,,,,,,,,,,,,,,,,,,,,,,,,,,,,,,,,,,,,,,,,,,,,,,,,
Player_2,2026-02-05T20:06:17.898079,singleTarget,2.0,20.0,True,100.0,100.0,0.0,1096.0,0.0,"(169.93,464.99)",19,Single,Game,,,,,,,,,,,,,,,,,,,,,,,,,,,,,,,,,,,,,,,,,,,,,,,,,,,,,,,,,,,,,,,
Player_2,2026-02-05T20:06:27.403203,singleTarget,3.0,30.0,True,100.0,100.0,0.0,1530.0,0.0,"(67.60,142.32)",19,Single,Game,,,,,,,,,,,,,,,,,,,,,,,,,,,,,,,,,,,,,,,,,,,,,,,,,,,,,,,,,,,,,,,
Player_2,2026-02-05T20:06:44.405138,singleTarget,4.0,40.0,True,100.0,100.0,0.0,7664.0,0.0,"(216.80,591.66)",19,Single,Game,,,,,,,,,,,,,,,,,,,,,,,,,,,,,,,,,,,,,,,,,,,,,,,,,,,,,,,,,,,,,,,
Player_2,2026-02-05T20:06:56.232222,singleTarget,5.0,50.0,True,100.0,100.0,0.0,1559.0,0.0,"(263.06,178.60)",19,Single,Game,,,,,,,,,,,,,,,,,,,,,,,,,,,,,,,,,,,,,,,,,,,,,,,,,,,,,,,,,,,,,,,
Player_2,2026-02-05T20:07:06.008664,singleTarget,6.0,60.0,True,100.0,100.0,0.0,2397.0,0.0,"(241.13,510.75)",19,Single,Game,,,,,,,,,,,,,,,,,,,,,,,,,,,,,,,,,,,,,,,,,,,,,,,,,,,,,,,,,,,,,,,
Player_2,2026-02-05T20:07:13.476865,singleTarget,7.0,70.0,True,100.0,100.0,0.0,1330.0,0.0,"(159.33,129.18)",19,Single,Game,,,,,,,,,,,,,,,,,,,,,,,,,,,,,,,,,,,,,,,,,,,,,,,,,,,,,,,,,,,,,,,
Player_2,2026-02-05T20:07:22.471324,singleTarget,8.0,80.0,True,100.0,100.0,0.0,2120.0,0.0,"(195.25,124.42)",19,Single,Game,,,,,,,,,,,,,,,,,,,,,,,,,,,,,,,,,,,,,,,,,,,,,,,,,,,,,,,,,,,,,,,
Player_2,2026-02-05T20:07:30.445816,singleTarget,9.0,90.0,True,100.0,100.0,0.0,2310.0,0.0,"(220.99,578.20)",19,Single,Game,,,,,,,,,,,,,,,,,,,,,,,,,,,,,,,,,,,,,,,,,,,,,,,,,,,,,,,,,,,,,,,
Player_2,2026-02-05T20:07:37.613379,singleTarget,10.0,100.0,True,100.0,100.0,0.0,2179.0,0.0,"(32.01,483.23)",19,Single,Game,,,,,,,,,,,,,,,,,,,,,,,,,,,,,,,,,,,,,,,,,,,,,,,,,,,,,,,,,,,,,,,
Player_2,2026-02-05T20:07:48.261534,singleTarget,11.0,110.0,True,100.0,100.0,0.0,4726.0,0.0,"(92.80,31.48)",19,Single,Game,,,,,,,,,,,,,,,,,,,,,,,,,,,,,,,,,,,,,,,,,,,,,,,,,,,,,,,,,,,,,,,
Player_2,2026-02-05T20:07:54.093381,singleTarget,12.0,120.0,True,100.0,100.0,0.0,1758.0,0.0,"(116.38,104.49)",19,Single,Game,,,,,,,,,,,,,,,,,,,,,,,,,,,,,,,,,,,,,,,,,,,,,,,,,,,,,,,,,,,,,,,
Player_2,2026-02-05T20:07:59.577110,singleTarget,13.0,130.0,True,100.0,100.0,0.0,2851.0,0.0,"(69.74,523.17)",19,Single,Game,,,,,,,,,,,,,,,,,,,,,,,,,,,,,,,,,,,,,,,,,,,,,,,,,,,,,,,,,,,,,,,
Player_2,2026-02-05T20:08:06.997446,singleTarget,14.0,140.0,True,100.0,100.0,0.0,3437.0,0.0,"(227.14,455.92)",19,Single,Game,,,,,,,,,,,,,,,,,,,,,,,,,,,,,,,,,,,,,,,,,,,,,,,,,,,,,,,,,,,,,,,
Player_2,2026-02-05T20:08:19.298025,singleTarget,15.0,145.0,True,50.0,100.0,1.0,6273.0,0.0,"(273.74,561.76)",19,Single,Game,,,,,,,,,,,,,,,,,,,,,,,,,,,,,,,,,,,,,,,,,,,,,,,,,,,,,,,,,,,,,,,
Player_2,2026-02-03T20:57:50.737123,singleTarget,1.0,10.0,True,100.0,100.0,0.0,4822.0,0.0,"(249.66,212.35)",1,Single,Game,,,,,,,,,,,,,,,,,,,,,,,,,,,,,,,,,,,,,,,,,,,,,,,,,,,,,,,,,,,,,,,
Player_2,2026-02-03T20:58:17.269298,singleTarget,2.0,20.0,True,100.0,100.0,0.0,1332.0,0.0,"(255.52,52.29)",1,Single,Game,,,,,,,,,,,,,,,,,,,,,,,,,,,,,,,,,,,,,,,,,,,,,,,,,,,,,,,,,,,,,,,
Player_2,2026-02-03T20:58:37.502763,singleTarget,3.0,30.0,True,100.0,100.0,0.0,2364.0,0.0,"(259.12,146.92)",1,Single,Game,,,,,,,,,,,,,,,,,,,,,,,,,,,,,,,,,,,,,,,,,,,,,,,,,,,,,,,,,,,,,,,
Player_2,2026-02-03T20:59:09.841470,singleTarget,4.0,40.0,True,100.0,100.0,0.0,5384.0,0.0,"(190.01,449.28)",1,Single,Game,,,,,,,,,,,,,,,,,,,,,,,,,,,,,,,,,,,,,,,,,,,,,,,,,,,,,,,,,,,,,,,
Player_2,2026-02-03T20:59:44.214864,singleTarget,5.0,50.0,True,100.0,100.0,0.0,3366.0,0.0,"(72.08,513.19)",1,Single,Game,,,,,,,,,,,,,,,,,,,,,,,,,,,,,,,,,,,,,,,,,,,,,,,,,,,,,,,,,,,,,,,
Player_2,2026-02-03T21:00:02.397708,singleTarget,6.0,60.0,True,100.0,100.0,0.0,3437.0,0.0,"(253.11,54.65)",1,Single,Game,,,,,,,,,,,,,,,,,,,,,,,,,,,,,,,,,,,,,,,,,,,,,,,,,,,,,,,,,,,,,,,
Player_2,2026-02-03T21:00:32.221843,singleTarget,7.0,70.0,True,100.0,100.0,0.0,5084.0,0.0,"(126.82,119.39)",1,Single,Game,,,,,,,,,,,,,,,,,,,,,,,,,,,,,,,,,,,,,,,,,,,,,,,,,,,,,,,,,,,,,,,
Player_2,2026-02-03T21:00:52.218330,singleTarget,8.0,80.0,True,100.0,100.0,0.0,2003.0,0.0,"(184.97,405.30)",1,Single,Game,,,,,,,,,,,,,,,,,,,,,,,,,,,,,,,,,,,,,,,,,,,,,,,,,,,,,,,,,,,,,,,
Player_2,2026-02-03T21:01:03.753696,singleTarget,9.0,90.0,True,100.0,100.0,0.0,2732.0,0.0,"(146.52,117.09)",1,Single,Game,,,,,,,,,,,,,,,,,,,,,,,,,,,,,,,,,,,,,,,,,,,,,,,,,,,,,,,,,,,,,,,
Player_2,2026-02-03T21:01:19.583722,singleTarget,10.0,100.0,True,100.0,100.0,0.0,4155.0,0.0,"(133.48,155.53)",1,Single,Game,,,,,,,,,,,,,,,,,,,,,,,,,,,,,,,,,,,,,,,,,,,,,,,,,,,,,,,,,,,,,,,
Player_2,2026-02-03T21:01:37.218797,singleTarget,11.0,110.0,True,100.0,100.0,0.0,2749.0,0.0,"(294.32,389.31)",1,Single,Game,,,,,,,,,,,,,,,,,,,,,,,,,,,,,,,,,,,,,,,,,,,,,,,,,,,,,,,,,,,,,,,
Player_2,2026-02-03T21:01:50.711374,singleTarget,12.0,120.0,True,100.0,100.0,0.0,2641.0,0.0,"(62.15,378.75)",1,Single,Game,,,,,,,,,,,,,,,,,,,,,,,,,,,,,,,,,,,,,,,,,,,,,,,,,,,,,,,,,,,,,,,
Player_2,2026-02-03T21:02:05.479249,singleTarget,13.0,130.0,True,100.0,100.0,0.0,2960.0,0.0,"(116.41,314.96)",1,Single,Game,,,,,,,,,,,,,,,,,,,,,,,,,,,,,,,,,,,,,,,,,,,,,,,,,,,,,,,,,,,,,,,
Player_2,2026-02-03T21:02:18.495527,singleTarget,14.0,140.0,True,100.0,100.0,0.0,1692.0,0.0,"(255.19,57.74)",1,Single,Game,,,,,,,,,,,,,,,,,,,,,,,,,,,,,,,,,,,,,,,,,,,,,,,,,,,,,,,,,,,,,,,
Player_2,2026-02-03T21:02:33.745765,singleTarget,15.0,150.0,True,100.0,100.0,0.0,1889.0,0.0,"(255.60,61.75)",1,Single,Game,,,,,,,,,,,,,,,,,,,,,,,,,,,,,,,,,,,,,,,,,,,,,,,,,,,,,,,,,,,,,,,
Player_2,2026-02-05T20:41:16.839418,singleTarget,1.0,10.0,True,100.0,100.0,0.0,1346.0,0.0,"(75.30,155.16)",20,Single,Game,,,,,,,,,,,,,,,,,,,,,,,,,,,,,,,,,,,,,,,,,,,,,,,,,,,,,,,,,,,,,,,
Player_2,2026-02-05T20:41:33.521727,singleTarget,2.0,20.0,True,100.0,100.0,0.0,1179.0,0.0,"(251.13,77.70)",20,Single,Game,,,,,,,,,,,,,,,,,,,,,,,,,,,,,,,,,,,,,,,,,,,,,,,,,,,,,,,,,,,,,,,
Player_2,2026-02-05T20:41:55.834169,singleTarget,3.0,30.0,True,100.0,100.0,0.0,1764.0,0.0,"(279.16,322.18)",20,Single,Game,,,,,,,,,,,,,,,,,,,,,,,,,,,,,,,,,,,,,,,,,,,,,,,,,,,,,,,,,,,,,,,
Player_2,2026-02-05T20:42:15.344672,singleTarget,4.0,40.0,True,100.0,100.0,0.0,2368.0,0.0,"(242.59,200.87)",20,Single,Game,,,,,,,,,,,,,,,,,,,,,,,,,,,,,,,,,,,,,,,,,,,,,,,,,,,,,,,,,,,,,,,
Player_2,2026-02-05T20:42:51.960590,singleTarget,5.0,50.0,True,100.0,100.0,0.0,1662.0,0.0,"(207.80,146.48)",20,Single,Game,,,,,,,,,,,,,,,,,,,,,,,,,,,,,,,,,,,,,,,,,,,,,,,,,,,,,,,,,,,,,,,
Player_2,2026-02-05T20:43:06.335592,singleTarget,6.0,60.0,True,100.0,100.0,0.0,2584.0,0.0,"(143.92,489.93)",20,Single,Game,,,,,,,,,,,,,,,,,,,,,,,,,,,,,,,,,,,,,,,,,,,,,,,,,,,,,,,,,,,,,,,
Player_2,2026-02-05T20:43:28.939614,singleTarget,7.0,70.0,True,100.0,100.0,0.0,3489.0,0.0,"(254.31,433.61)",20,Single,Game,,,,,,,,,,,,,,,,,,,,,,,,,,,,,,,,,,,,,,,,,,,,,,,,,,,,,,,,,,,,,,,
Player_2,2026-02-05T20:43:51.225448,singleTarget,8.0,80.0,True,100.0,100.0,0.0,2225.0,0.0,"(162.80,68.98)",20,Single,Game,,,,,,,,,,,,,,,,,,,,,,,,,,,,,,,,,,,,,,,,,,,,,,,,,,,,,,,,,,,,,,,
Player_2,2026-02-05T20:44:07.430738,singleTarget,9.0,90.0,True,100.0,100.0,0.0,4334.0,0.0,"(34.57,201.66)",20,Single,Game,,,,,,,,,,,,,,,,,,,,,,,,,,,,,,,,,,,,,,,,,,,,,,,,,,,,,,,,,,,,,,,
Player_2,2026-02-05T20:44:29.511758,singleTarget,10.0,100.0,True,100.0,100.0,0.0,3223.0,0.0,"(100.09,584.21)",20,Single,Game,,,,,,,,,,,,,,,,,,,,,,,,,,,,,,,,,,,,,,,,,,,,,,,,,,,,,,,,,,,,,,,
Player_2,2026-02-05T20:44:50.217706,singleTarget,11.0,110.0,True,100.0,100.0,0.0,2525.0,0.0,"(66.55,98.34)",20,Single,Game,,,,,,,,,,,,,,,,,,,,,,,,,,,,,,,,,,,,,,,,,,,,,,,,,,,,,,,,,,,,,,,
Player_2,2026-02-05T20:45:13.637489,singleTarget,12.0,120.0,True,100.0,100.0,0.0,9305.0,0.0,"(226.24,328.30)",20,Single,Game,,,,,,,,,,,,,,,,,,,,,,,,,,,,,,,,,,,,,,,,,,,,,,,,,,,,,,,,,,,,,,,
Player_2,2026-02-05T20:45:31.542771,singleTarget,13.0,130.0,True,100.0,100.0,0.0,4928.0,0.0,"(295.54,462.41)",20,Single,Game,,,,,,,,,,,,,,,,,,,,,,,,,,,,,,,,,,,,,,,,,,,,,,,,,,,,,,,,,,,,,,,
Player_2,2026-02-05T20:45:52.586633,singleTarget,14.0,140.0,True,100.0,100.0,0.0,4396.0,0.0,"(214.22,39.26)",20,Single,Game,,,,,,,,,,,,,,,,,,,,,,,,,,,,,,,,,,,,,,,,,,,,,,,,,,,,,,,,,,,,,,,
Player_2,2026-02-05T20:46:16.332047,singleTarget,15.0,150.0,True,100.0,100.0,0.0,6991.0,0.0,"(179.96,575.68)",20,Single,Game,,,,,,,,,,,,,,,,,,,,,,,,,,,,,,,,,,,,,,,,,,,,,,,,,,,,,,,,,,,,,,,
Player_2,2026-02-05T20:58:30.945547,singleTarget,1.0,10.0,True,100.0,100.0,0.0,1700.0,0.0,"(244.93,570.91)",21,Single,Game,,,,,,,,,,,,,,,,,,,,,,,,,,,,,,,,,,,,,,,,,,,,,,,,,,,,,,,,,,,,,,,
Player_2,2026-02-05T20:58:41.212908,singleTarget,2.0,20.0,True,100.0,100.0,0.0,1142.0,0.0,"(96.96,260.57)",21,Single,Game,,,,,,,,,,,,,,,,,,,,,,,,,,,,,,,,,,,,,,,,,,,,,,,,,,,,,,,,,,,,,,,
Player_2,2026-02-05T20:58:52.726721,singleTarget,3.0,30.0,True,100.0,100.0,0.0,1386.0,0.0,"(165.35,177.93)",21,Single,Game,,,,,,,,,,,,,,,,,,,,,,,,,,,,,,,,,,,,,,,,,,,,,,,,,,,,,,,,,,,,,,,
Player_2,2026-02-05T20:59:07.852057,singleTarget,4.0,40.0,True,100.0,100.0,0.0,3218.0,0.0,"(59.92,220.63)",21,Single,Game,,,,,,,,,,,,,,,,,,,,,,,,,,,,,,,,,,,,,,,,,,,,,,,,,,,,,,,,,,,,,,,
Player_2,2026-02-05T20:59:30.207302,singleTarget,5.0,50.0,True,100.0,100.0,0.0,1676.0,0.0,"(39.40,253.74)",21,Single,Game,,,,,,,,,,,,,,,,,,,,,,,,,,,,,,,,,,,,,,,,,,,,,,,,,,,,,,,,,,,,,,,
Player_2,2026-02-05T20:59:45.870762,singleTarget,6.0,60.0,True,100.0,100.0,0.0,1922.0,0.0,"(222.00,258.46)",21,Single,Game,,,,,,,,,,,,,,,,,,,,,,,,,,,,,,,,,,,,,,,,,,,,,,,,,,,,,,,,,,,,,,,
Player_2,2026-02-05T21:00:00.365828,singleTarget,7.0,70.0,True,100.0,100.0,0.0,3228.0,0.0,"(95.03,338.20)",21,Single,Game,,,,,,,,,,,,,,,,,,,,,,,,,,,,,,,,,,,,,,,,,,,,,,,,,,,,,,,,,,,,,,,
Player_2,2026-02-05T21:00:20.406884,singleTarget,8.0,80.0,True,100.0,100.0,0.0,2578.0,0.0,"(146.85,108.55)",21,Single,Game,,,,,,,,,,,,,,,,,,,,,,,,,,,,,,,,,,,,,,,,,,,,,,,,,,,,,,,,,,,,,,,
Player_2,2026-02-05T21:00:30.627714,singleTarget,9.0,90.0,True,100.0,100.0,0.0,1820.0,0.0,"(62.27,95.07)",21,Single,Game,,,,,,,,,,,,,,,,,,,,,,,,,,,,,,,,,,,,,,,,,,,,,,,,,,,,,,,,,,,,,,,
Player_2,2026-02-05T21:00:53.719834,singleTarget,10.0,100.0,True,100.0,100.0,0.0,10896.0,0.0,"(244.89,311.84)",21,Single,Game,,,,,,,,,,,,,,,,,,,,,,,,,,,,,,,,,,,,,,,,,,,,,,,,,,,,,,,,,,,,,,,
Player_2,2026-02-05T21:01:22.247238,singleTarget,11.0,110.0,True,100.0,100.0,0.0,14711.0,0.0,"(259.38,102.27)",21,Single,Game,,,,,,,,,,,,,,,,,,,,,,,,,,,,,,,,,,,,,,,,,,,,,,,,,,,,,,,,,,,,,,,
Player_2,2026-02-05T21:01:38.232030,singleTarget,12.0,120.0,True,100.0,100.0,0.0,3875.0,0.0,"(265.73,505.54)",21,Single,Game,,,,,,,,,,,,,,,,,,,,,,,,,,,,,,,,,,,,,,,,,,,,,,,,,,,,,,,,,,,,,,,
Player_2,2026-02-05T21:01:53.882818,singleTarget,13.0,130.0,True,100.0,100.0,0.0,1731.0,0.0,"(207.40,210.33)",21,Single,Game,,,,,,,,,,,,,,,,,,,,,,,,,,,,,,,,,,,,,,,,,,,,,,,,,,,,,,,,,,,,,,,
Player_2,2026-02-05T21:02:10.404423,singleTarget,14.0,140.0,True,100.0,100.0,0.0,4309.0,0.0,"(177.96,531.78)",21,Single,Game,,,,,,,,,,,,,,,,,,,,,,,,,,,,,,,,,,,,,,,,,,,,,,,,,,,,,,,,,,,,,,,
Player_2,2026-02-05T21:02:25.008166,singleTarget,15.0,150.0,True,100.0,100.0,0.0,5331.0,0.0,"(119.45,517.59)",21,Single,Game,,,,,,,,,,,,,,,,,,,,,,,,,,,,,,,,,,,,,,,,,,,,,,,,,,,,,,,,,,,,,,,
Player_2,2026-02-03T21:14:34.783805,singleTarget,1.0,10.0,True,100.0,100.0,0.0,1272.0,0.0,"(215.07,37.80)",2,Single,Game,,,,,,,,,,,,,,,,,,,,,,,,,,,,,,,,,,,,,,,,,,,,,,,,,,,,,,,,,,,,,,,
Player_2,2026-02-03T21:14:47.244430,singleTarget,2.0,20.0,True,100.0,100.0,0.0,1003.0,0.0,"(205.45,197.31)",2,Single,Game,,,,,,,,,,,,,,,,,,,,,,,,,,,,,,,,,,,,,,,,,,,,,,,,,,,,,,,,,,,,,,,
Player_2,2026-02-03T21:14:55.903829,singleTarget,3.0,30.0,True,100.0,100.0,0.0,2125.0,0.0,"(145.30,93.38)",2,Single,Game,,,,,,,,,,,,,,,,,,,,,,,,,,,,,,,,,,,,,,,,,,,,,,,,,,,,,,,,,,,,,,,
Player_2,2026-02-03T21:15:09.355812,singleTarget,4.0,40.0,True,100.0,100.0,0.0,2974.0,0.0,"(279.97,518.15)",2,Single,Game,,,,,,,,,,,,,,,,,,,,,,,,,,,,,,,,,,,,,,,,,,,,,,,,,,,,,,,,,,,,,,,
Player_2,2026-02-03T21:15:21.497029,singleTarget,5.0,50.0,True,100.0,100.0,0.0,2533.0,0.0,"(64.13,595.55)",2,Single,Game,,,,,,,,,,,,,,,,,,,,,,,,,,,,,,,,,,,,,,,,,,,,,,,,,,,,,,,,,,,,,,,
Player_2,2026-02-03T21:15:31.907110,singleTarget,6.0,60.0,True,100.0,100.0,0.0,1753.0,0.0,"(239.29,480.43)",2,Single,Game,,,,,,,,,,,,,,,,,,,,,,,,,,,,,,,,,,,,,,,,,,,,,,,,,,,,,,,,,,,,,,,
Player_2,2026-02-03T21:15:46.318366,singleTarget,7.0,70.0,True,100.0,100.0,0.0,8250.0,0.0,"(48.26,127.93)",2,Single,Game,,,,,,,,,,,,,,,,,,,,,,,,,,,,,,,,,,,,,,,,,,,,,,,,,,,,,,,,,,,,,,,
Player_2,2026-02-03T21:15:58.632685,singleTarget,8.0,80.0,True,100.0,100.0,0.0,1491.0,0.0,"(113.39,477.54)",2,Single,Game,,,,,,,,,,,,,,,,,,,,,,,,,,,,,,,,,,,,,,,,,,,,,,,,,,,,,,,,,,,,,,,
Player_2,2026-02-03T21:16:07.339238,singleTarget,9.0,90.0,True,100.0,100.0,0.0,1328.0,0.0,"(194.88,383.96)",2,Single,Game,,,,,,,,,,,,,,,,,,,,,,,,,,,,,,,,,,,,,,,,,,,,,,,,,,,,,,,,,,,,,,,
Player_2,2026-02-03T21:16:18.902712,singleTarget,10.0,100.0,True,100.0,100.0,0.0,5046.0,0.0,"(51.04,232.02)",2,Single,Game,,,,,,,,,,,,,,,,,,,,,,,,,,,,,,,,,,,,,,,,,,,,,,,,,,,,,,,,,,,,,,,
Player_2,2026-02-03T21:16:30.683261,singleTarget,11.0,110.0,True,100.0,100.0,0.0,5289.0,0.0,"(166.07,553.27)",2,Single,Game,,,,,,,,,,,,,,,,,,,,,,,,,,,,,,,,,,,,,,,,,,,,,,,,,,,,,,,,,,,,,,,
Player_2,2026-02-03T21:16:45.903113,singleTarget,12.0,120.0,True,100.0,100.0,0.0,7822.0,0.0,"(133.42,228.27)",2,Single,Game,,,,,,,,,,,,,,,,,,,,,,,,,,,,,,,,,,,,,,,,,,,,,,,,,,,,,,,,,,,,,,,
Player_2,2026-02-03T21:16:54.181484,singleTarget,13.0,130.0,True,100.0,100.0,0.0,1362.0,0.0,"(233.93,455.01)",2,Single,Game,,,,,,,,,,,,,,,,,,,,,,,,,,,,,,,,,,,,,,,,,,,,,,,,,,,,,,,,,,,,,,,
Player_2,2026-02-03T21:17:06.735660,singleTarget,14.0,140.0,True,100.0,100.0,0.0,6814.0,0.0,"(252.88,395.69)",2,Single,Game,,,,,,,,,,,,,,,,,,,,,,,,,,,,,,,,,,,,,,,,,,,,,,,,,,,,,,,,,,,,,,,
Player_2,2026-02-03T21:17:27.796755,singleTarget,15.0,130.0,False,33.33,0.0,2.0,0.0,0.0,,2,Single,Game,,,,,,,,,,,,,,,,,,,,,,,,,,,,,,,,,,,,,,,,,,,,,,,,,,,,,,,,,,,,,,,
Player_2,2026-02-03T21:17:48.436585,singleTarget,15.0,10.0,True,100.0,100.0,0.0,10604.0,0.0,"(237.80,211.46)",2,Single,Game,,,,,,,,,,,,,,,,,,,,,,,,,,,,,,,,,,,,,,,,,,,,,,,,,,,,,,,,,,,,,,,
Player_2,2026-02-03T21:21:31.244954,singleTarget,1.0,10.0,True,100.0,100.0,0.0,1372.0,0.0,"(292.65,527.67)",3,Single,Game,,,,,,,,,,,,,,,,,,,,,,,,,,,,,,,,,,,,,,,,,,,,,,,,,,,,,,,,,,,,,,,
Player_2,2026-02-03T21:21:39.092481,singleTarget,2.0,20.0,True,100.0,100.0,0.0,1011.0,0.0,"(195.72,374.89)",3,Single,Game,,,,,,,,,,,,,,,,,,,,,,,,,,,,,,,,,,,,,,,,,,,,,,,,,,,,,,,,,,,,,,,
Player_2,2026-02-03T21:21:47.315484,singleTarget,3.0,30.0,True,100.0,100.0,0.0,1433.0,0.0,"(146.57,145.11)",3,Single,Game,,,,,,,,,,,,,,,,,,,,,,,,,,,,,,,,,,,,,,,,,,,,,,,,,,,,,,,,,,,,,,,
Player_2,2026-02-03T21:21:56.582639,singleTarget,4.0,40.0,True,100.0,100.0,0.0,2731.0,0.0,"(269.84,97.87)",3,Single,Game,,,,,,,,,,,,,,,,,,,,,,,,,,,,,,,,,,,,,,,,,,,,,,,,,,,,,,,,,,,,,,,
Player_2,2026-02-03T21:22:05.913388,singleTarget,5.0,50.0,True,100.0,100.0,0.0,1656.0,0.0,"(208.70,310.30)",3,Single,Game,,,,,,,,,,,,,,,,,,,,,,,,,,,,,,,,,,,,,,,,,,,,,,,,,,,,,,,,,,,,,,,
Player_2,2026-02-03T21:22:13.688693,singleTarget,6.0,60.0,True,100.0,100.0,0.0,1615.0,0.0,"(156.31,175.28)",3,Single,Game,,,,,,,,,,,,,,,,,,,,,,,,,,,,,,,,,,,,,,,,,,,,,,,,,,,,,,,,,,,,,,,
Player_2,2026-02-03T21:22:21.091299,singleTarget,7.0,70.0,True,100.0,100.0,0.0,1810.0,0.0,"(53.48,108.73)",3,Single,Game,,,,,,,,,,,,,,,,,,,,,,,,,,,,,,,,,,,,,,,,,,,,,,,,,,,,,,,,,,,,,,,
Player_2,2026-02-03T21:22:29.238197,singleTarget,8.0,80.0,True,100.0,100.0,0.0,2396.0,0.0,"(162.18,518.14)",3,Single,Game,,,,,,,,,,,,,,,,,,,,,,,,,,,,,,,,,,,,,,,,,,,,,,,,,,,,,,,,,,,,,,,
Player_2,2026-02-03T21:22:36.203306,singleTarget,9.0,90.0,True,100.0,100.0,0.0,1920.0,0.0,"(80.19,122.24)",3,Single,Game,,,,,,,,,,,,,,,,,,,,,,,,,,,,,,,,,,,,,,,,,,,,,,,,,,,,,,,,,,,,,,,
Player_2,2026-02-03T21:22:43.253133,singleTarget,10.0,100.0,True,100.0,100.0,0.0,1777.0,0.0,"(206.00,78.99)",3,Single,Game,,,,,,,,,,,,,,,,,,,,,,,,,,,,,,,,,,,,,,,,,,,,,,,,,,,,,,,,,,,,,,,
Player_2,2026-02-03T21:22:52.170647,singleTarget,11.0,110.0,True,100.0,100.0,0.0,2815.0,0.0,"(222.60,454.73)",3,Single,Game,,,,,,,,,,,,,,,,,,,,,,,,,,,,,,,,,,,,,,,,,,,,,,,,,,,,,,,,,,,,,,,
Player_2,2026-02-03T21:23:00.188081,singleTarget,12.0,120.0,True,100.0,100.0,0.0,3420.0,0.0,"(115.06,481.14)",3,Single,Game,,,,,,,,,,,,,,,,,,,,,,,,,,,,,,,,,,,,,,,,,,,,,,,,,,,,,,,,,,,,,,,
Player_2,2026-02-03T21:23:20.777265,singleTarget,13.0,115.0,False,50.0,0.0,1.0,0.0,0.0,,3,Single,Game,,,,,,,,,,,,,,,,,,,,,,,,,,,,,,,,,,,,,,,,,,,,,,,,,,,,,,,,,,,,,,,
Player_2,2026-02-03T21:23:35.533345,singleTarget,13.0,10.0,True,100.0,100.0,0.0,2457.0,0.0,"(183.49,446.05)",3,Single,Game,,,,,,,,,,,,,,,,,,,,,,,,,,,,,,,,,,,,,,,,,,,,,,,,,,,,,,,,,,,,,,,
Player_2,2026-02-03T21:23:44.572989,singleTarget,14.0,20.0,True,100.0,100.0,0.0,3951.0,0.0,"(268.12,388.15)",3,Single,Game,,,,,,,,,,,,,,,,,,,,,,,,,,,,,,,,,,,,,,,,,,,,,,,,,,,,,,,,,,,,,,,
Player_2,2026-02-03T21:23:57.574328,singleTarget,15.0,30.0,True,100.0,100.0,0.0,6229.0,0.0,"(221.13,404.85)",3,Single,Game,,,,,,,,,,,,,,,,,,,,,,,,,,,,,,,,,,,,,,,,,,,,,,,,,,,,,,,,,,,,,,,
Player_2,2026-02-04T11:14:48.646081,singleTarget,1.0,10.0,True,100.0,100.0,0.0,1332.0,0.0,"(248.92,59.16)",4,Single,Game,,,,,,,,,,,,,,,,,,,,,,,,,,,,,,,,,,,,,,,,,,,,,,,,,,,,,,,,,,,,,,,
Player_2,2026-02-04T11:14:56.812675,singleTarget,2.0,20.0,True,100.0,100.0,0.0,997.0,0.0,"(163.01,407.76)",4,Single,Game,,,,,,,,,,,,,,,,,,,,,,,,,,,,,,,,,,,,,,,,,,,,,,,,,,,,,,,,,,,,,,,
Player_2,2026-02-04T11:15:04.122883,singleTarget,3.0,30.0,True,100.0,100.0,0.0,1174.0,0.0,"(155.03,135.63)",4,Single,Game,,,,,,,,,,,,,,,,,,,,,,,,,,,,,,,,,,,,,,,,,,,,,,,,,,,,,,,,,,,,,,,
Player_2,2026-02-04T11:15:13.302847,singleTarget,4.0,40.0,True,100.0,100.0,0.0,2592.0,0.0,"(220.79,449.83)",4,Single,Game,,,,,,,,,,,,,,,,,,,,,,,,,,,,,,,,,,,,,,,,,,,,,,,,,,,,,,,,,,,,,,,
Player_2,2026-02-04T11:15:22.401252,singleTarget,5.0,50.0,True,100.0,100.0,0.0,1833.0,0.0,"(214.18,393.29)",4,Single,Game,,,,,,,,,,,,,,,,,,,,,,,,,,,,,,,,,,,,,,,,,,,,,,,,,,,,,,,,,,,,,,,
Player_2,2026-02-04T11:15:30.103466,singleTarget,6.0,60.0,True,100.0,100.0,0.0,1610.0,0.0,"(288.35,252.67)",4,Single,Game,,,,,,,,,,,,,,,,,,,,,,,,,,,,,,,,,,,,,,,,,,,,,,,,,,,,,,,,,,,,,,,
Player_2,2026-02-04T11:15:38.493266,singleTarget,7.0,70.0,True,100.0,100.0,0.0,2535.0,0.0,"(141.49,267.10)",4,Single,Game,,,,,,,,,,,,,,,,,,,,,,,,,,,,,,,,,,,,,,,,,,,,,,,,,,,,,,,,,,,,,,,
Player_2,2026-02-04T11:15:46.655105,singleTarget,8.0,80.0,True,100.0,100.0,0.0,1632.0,0.0,"(254.01,433.08)",4,Single,Game,,,,,,,,,,,,,,,,,,,,,,,,,,,,,,,,,,,,,,,,,,,,,,,,,,,,,,,,,,,,,,,
Player_2,2026-02-04T11:15:53.749734,singleTarget,9.0,90.0,True,100.0,100.0,0.0,1842.0,0.0,"(158.69,105.59)",4,Single,Game,,,,,,,,,,,,,,,,,,,,,,,,,,,,,,,,,,,,,,,,,,,,,,,,,,,,,,,,,,,,,,,
Player_2,2026-02-04T11:16:06.663369,singleTarget,10.0,100.0,True,100.0,100.0,0.0,7487.0,0.0,"(57.98,306.61)",4,Single,Game,,,,,,,,,,,,,,,,,,,,,,,,,,,,,,,,,,,,,,,,,,,,,,,,,,,,,,,,,,,,,,,
Player_2,2026-02-04T11:16:17.435141,singleTarget,11.0,110.0,True,100.0,100.0,0.0,4283.0,0.0,"(90.18,533.49)",4,Single,Game,,,,,,,,,,,,,,,,,,,,,,,,,,,,,,,,,,,,,,,,,,,,,,,,,,,,,,,,,,,,,,,
Player_2,2026-02-04T11:16:26.632708,singleTarget,12.0,120.0,True,100.0,100.0,0.0,2417.0,0.0,"(88.68,479.46)",4,Single,Game,,,,,,,,,,,,,,,,,,,,,,,,,,,,,,,,,,,,,,,,,,,,,,,,,,,,,,,,,,,,,,,
Player_2,2026-02-04T11:16:46.582832,singleTarget,13.0,115.0,False,50.0,0.0,1.0,0.0,0.0,,4,Single,Game,,,,,,,,,,,,,,,,,,,,,,,,,,,,,,,,,,,,,,,,,,,,,,,,,,,,,,,,,,,,,,,
Player_2,2026-02-04T11:17:02.632941,singleTarget,13.0,10.0,True,100.0,100.0,0.0,6947.0,0.0,"(152.75,44.03)",4,Single,Game,,,,,,,,,,,,,,,,,,,,,,,,,,,,,,,,,,,,,,,,,,,,,,,,,,,,,,,,,,,,,,,
Player_2,2026-02-04T11:17:11.306244,singleTarget,14.0,20.0,True,100.0,100.0,0.0,3334.0,0.0,"(137.10,445.95)",4,Single,Game,,,,,,,,,,,,,,,,,,,,,,,,,,,,,,,,,,,,,,,,,,,,,,,,,,,,,,,,,,,,,,,
Player_2,2026-02-04T11:17:23.632285,singleTarget,15.0,30.0,True,100.0,100.0,0.0,5386.0,0.0,"(124.26,39.83)",4,Single,Game,,,,,,,,,,,,,,,,,,,,,,,,,,,,,,,,,,,,,,,,,,,,,,,,,,,,,,,,,,,,,,,
Player_2,2026-02-04T11:20:25.286064,singleTarget,1.0,10.0,True,100.0,100.0,0.0,1304.0,0.0,"(170.82,173.47)",5,Single,Game,,,,,,,,,,,,,,,,,,,,,,,,,,,,,,,,,,,,,,,,,,,,,,,,,,,,,,,,,,,,,,,
Player_2,2026-02-04T11:20:38.823070,singleTarget,2.0,20.0,True,100.0,100.0,0.0,1330.0,0.0,"(94.38,162.42)",5,Single,Game,,,,,,,,,,,,,,,,,,,,,,,,,,,,,,,,,,,,,,,,,,,,,,,,,,,,,,,,,,,,,,,
Player_2,2026-02-04T11:20:53.492163,singleTarget,3.0,30.0,True,100.0,100.0,0.0,5715.0,0.0,"(47.18,143.41)",5,Single,Game,,,,,,,,,,,,,,,,,,,,,,,,,,,,,,,,,,,,,,,,,,,,,,,,,,,,,,,,,,,,,,,
Player_2,2026-02-04T11:21:02.848062,singleTarget,4.0,40.0,True,100.0,100.0,0.0,2028.0,0.0,"(233.80,79.45)",5,Single,Game,,,,,,,,,,,,,,,,,,,,,,,,,,,,,,,,,,,,,,,,,,,,,,,,,,,,,,,,,,,,,,,
Player_2,2026-02-04T11:21:11.900219,singleTarget,5.0,50.0,True,100.0,100.0,0.0,2276.0,0.0,"(119.26,348.67)",5,Single,Game,,,,,,,,,,,,,,,,,,,,,,,,,,,,,,,,,,,,,,,,,,,,,,,,,,,,,,,,,,,,,,,
Player_2,2026-02-04T11:21:23.062451,singleTarget,6.0,60.0,True,100.0,100.0,0.0,2307.0,0.0,"(195.13,523.32)",5,Single,Game,,,,,,,,,,,,,,,,,,,,,,,,,,,,,,,,,,,,,,,,,,,,,,,,,,,,,,,,,,,,,,,
Player_2,2026-02-04T11:21:43.615865,singleTarget,7.0,40.0,False,20.0,0.0,4.0,0.0,0.0,,5,Single,Game,,,,,,,,,,,,,,,,,,,,,,,,,,,,,,,,,,,,,,,,,,,,,,,,,,,,,,,,,,,,,,,
Player_2,2026-02-04T11:21:55.523129,singleTarget,7.0,10.0,True,100.0,100.0,0.0,3113.0,0.0,"(133.45,487.07)",5,Single,Game,,,,,,,,,,,,,,,,,,,,,,,,,,,,,,,,,,,,,,,,,,,,,,,,,,,,,,,,,,,,,,,
Player_2,2026-02-04T11:22:04.323543,singleTarget,8.0,20.0,True,100.0,100.0,0.0,1592.0,0.0,"(238.17,356.45)",5,Single,Game,,,,,,,,,,,,,,,,,,,,,,,,,,,,,,,,,,,,,,,,,,,,,,,,,,,,,,,,,,,,,,,
Player_2,2026-02-04T11:22:11.706782,singleTarget,9.0,30.0,True,100.0,100.0,0.0,1692.0,0.0,"(230.89,503.61)",5,Single,Game,,,,,,,,,,,,,,,,,,,,,,,,,,,,,,,,,,,,,,,,,,,,,,,,,,,,,,,,,,,,,,,
Player_2,2026-02-04T11:22:21.782920,singleTarget,10.0,40.0,True,100.0,100.0,0.0,5118.0,0.0,"(140.57,367.84)",5,Single,Game,,,,,,,,,,,,,,,,,,,,,,,,,,,,,,,,,,,,,,,,,,,,,,,,,,,,,,,,,,,,,,,
Player_2,2026-02-04T11:22:40.849575,singleTarget,11.0,25.0,False,25.0,0.0,3.0,0.0,0.0,,5,Single,Game,,,,,,,,,,,,,,,,,,,,,,,,,,,,,,,,,,,,,,,,,,,,,,,,,,,,,,,,,,,,,,,
Player_2,2026-02-04T11:23:02.005675,singleTarget,11.0,-15.0,False,25.0,0.0,3.0,0.0,0.0,,5,Single,Game,,,,,,,,,,,,,,,,,,,,,,,,,,,,,,,,,,,,,,,,,,,,,,,,,,,,,,,,,,,,,,,
Player_2,2026-02-04T11:23:25.373580,singleTarget,11.0,5.0,True,50.0,100.0,1.0,12894.0,0.0,"(199.89,503.46)",5,Single,Game,,,,,,,,,,,,,,,,,,,,,,,,,,,,,,,,,,,,,,,,,,,,,,,,,,,,,,,,,,,,,,,
Player_2,2026-02-04T11:23:37.020183,singleTarget,12.0,15.0,True,100.0,100.0,0.0,4034.0,0.0,"(261.33,107.84)",5,Single,Game,,,,,,,,,,,,,,,,,,,,,,,,,,,,,,,,,,,,,,,,,,,,,,,,,,,,,,,,,,,,,,,
Player_2,2026-02-04T11:23:57.265106,singleTarget,13.0,5.0,False,33.33,0.0,2.0,0.0,0.0,,5,Single,Game,,,,,,,,,,,,,,,,,,,,,,,,,,,,,,,,,,,,,,,,,,,,,,,,,,,,,,,,,,,,,,,
Player_2,2026-02-04T11:24:09.242784,singleTarget,13.0,10.0,True,100.0,100.0,0.0,4000.0,0.0,"(66.77,37.21)",5,Single,Game,,,,,,,,,,,,,,,,,,,,,,,,,,,,,,,,,,,,,,,,,,,,,,,,,,,,,,,,,,,,,,,
Player_2,2026-02-04T11:24:28.993507,singleTarget,14.0,20.0,True,100.0,100.0,0.0,11027.0,0.0,"(222.76,474.26)",5,Single,Game,,,,,,,,,,,,,,,,,,,,,,,,,,,,,,,,,,,,,,,,,,,,,,,,,,,,,,,,,,,,,,,
Player_2,2026-02-04T11:24:48.078971,singleTarget,15.0,30.0,True,100.0,100.0,0.0,11809.0,0.0,"(223.07,146.73)",5,Single,Game,,,,,,,,,,,,,,,,,,,,,,,,,,,,,,,,,,,,,,,,,,,,,,,,,,,,,,,,,,,,,,,
Player_2,2026-02-04T11:20:25.286064,singleTarget,1.0,10.0,True,100.0,100.0,0.0,1304.0,0.0,"(170.82,173.47)",6,Single,Game,,,,,,,,,,,,,,,,,,,,,,,,,,,,,,,,,,,,,,,,,,,,,,,,,,,,,,,,,,,,,,,
Player_2,2026-02-04T11:20:38.823070,singleTarget,2.0,20.0,True,100.0,100.0,0.0,1330.0,0.0,"(94.38,162.42)",6,Single,Game,,,,,,,,,,,,,,,,,,,,,,,,,,,,,,,,,,,,,,,,,,,,,,,,,,,,,,,,,,,,,,,
Player_2,2026-02-04T11:20:53.492163,singleTarget,3.0,30.0,True,100.0,100.0,0.0,5715.0,0.0,"(47.18,143.41)",6,Single,Game,,,,,,,,,,,,,,,,,,,,,,,,,,,,,,,,,,,,,,,,,,,,,,,,,,,,,,,,,,,,,,,
Player_2,2026-02-04T11:21:02.848062,singleTarget,4.0,40.0,True,100.0,100.0,0.0,2028.0,0.0,"(233.80,79.45)",6,Single,Game,,,,,,,,,,,,,,,,,,,,,,,,,,,,,,,,,,,,,,,,,,,,,,,,,,,,,,,,,,,,,,,
Player_2,2026-02-04T11:21:11.900219,singleTarget,5.0,50.0,True,100.0,100.0,0.0,2276.0,0.0,"(119.26,348.67)",6,Single,Game,,,,,,,,,,,,,,,,,,,,,,,,,,,,,,,,,,,,,,,,,,,,,,,,,,,,,,,,,,,,,,,
Player_2,2026-02-04T11:21:23.062451,singleTarget,6.0,60.0,True,100.0,100.0,0.0,2307.0,0.0,"(195.13,523.32)",6,Single,Game,,,,,,,,,,,,,,,,,,,,,,,,,,,,,,,,,,,,,,,,,,,,,,,,,,,,,,,,,,,,,,,
Player_2,2026-02-04T11:21:43.615865,singleTarget,7.0,40.0,False,20.0,0.0,4.0,0.0,0.0,,6,Single,Game,,,,,,,,,,,,,,,,,,,,,,,,,,,,,,,,,,,,,,,,,,,,,,,,,,,,,,,,,,,,,,,
Player_2,2026-02-04T11:21:55.523129,singleTarget,7.0,10.0,True,100.0,100.0,0.0,3113.0,0.0,"(133.45,487.07)",6,Single,Game,,,,,,,,,,,,,,,,,,,,,,,,,,,,,,,,,,,,,,,,,,,,,,,,,,,,,,,,,,,,,,,
Player_2,2026-02-04T11:22:04.323543,singleTarget,8.0,20.0,True,100.0,100.0,0.0,1592.0,0.0,"(238.17,356.45)",6,Single,Game,,,,,,,,,,,,,,,,,,,,,,,,,,,,,,,,,,,,,,,,,,,,,,,,,,,,,,,,,,,,,,,
Player_2,2026-02-04T11:22:11.706782,singleTarget,9.0,30.0,True,100.0,100.0,0.0,1692.0,0.0,"(230.89,503.61)",6,Single,Game,,,,,,,,,,,,,,,,,,,,,,,,,,,,,,,,,,,,,,,,,,,,,,,,,,,,,,,,,,,,,,,
Player_2,2026-02-04T11:22:21.782920,singleTarget,10.0,40.0,True,100.0,100.0,0.0,5118.0,0.0,"(140.57,367.84)",6,Single,Game,,,,,,,,,,,,,,,,,,,,,,,,,,,,,,,,,,,,,,,,,,,,,,,,,,,,,,,,,,,,,,,
Player_2,2026-02-04T11:22:40.849575,singleTarget,11.0,25.0,False,25.0,0.0,3.0,0.0,0.0,,6,Single,Game,,,,,,,,,,,,,,,,,,,,,,,,,,,,,,,,,,,,,,,,,,,,,,,,,,,,,,,,,,,,,,,
Player_2,2026-02-04T11:23:02.005675,singleTarget,11.0,-15.0,False,25.0,0.0,3.0,0.0,0.0,,6,Single,Game,,,,,,,,,,,,,,,,,,,,,,,,,,,,,,,,,,,,,,,,,,,,,,,,,,,,,,,,,,,,,,,
Player_2,2026-02-04T11:23:25.373580,singleTarget,11.0,5.0,True,50.0,100.0,1.0,12894.0,0.0,"(199.89,503.46)",6,Single,Game,,,,,,,,,,,,,,,,,,,,,,,,,,,,,,,,,,,,,,,,,,,,,,,,,,,,,,,,,,,,,,,
Player_2,2026-02-04T11:23:37.020183,singleTarget,12.0,15.0,True,100.0,100.0,0.0,4034.0,0.0,"(261.33,107.84)",6,Single,Game,,,,,,,,,,,,,,,,,,,,,,,,,,,,,,,,,,,,,,,,,,,,,,,,,,,,,,,,,,,,,,,
Player_2,2026-02-04T11:23:57.265106,singleTarget,13.0,5.0,False,33.33,0.0,2.0,0.0,0.0,,6,Single,Game,,,,,,,,,,,,,,,,,,,,,,,,,,,,,,,,,,,,,,,,,,,,,,,,,,,,,,,,,,,,,,,
Player_2,2026-02-04T11:24:09.242784,singleTarget,13.0,10.0,True,100.0,100.0,0.0,4000.0,0.0,"(66.77,37.21)",6,Single,Game,,,,,,,,,,,,,,,,,,,,,,,,,,,,,,,,,,,,,,,,,,,,,,,,,,,,,,,,,,,,,,,
Player_2,2026-02-04T11:24:28.993507,singleTarget,14.0,20.0,True,100.0,100.0,0.0,11027.0,0.0,"(222.76,474.26)",6,Single,Game,,,,,,,,,,,,,,,,,,,,,,,,,,,,,,,,,,,,,,,,,,,,,,,,,,,,,,,,,,,,,,,
Player_2,2026-02-04T11:24:48.078971,singleTarget,15.0,30.0,True,100.0,100.0,0.0,11809.0,0.0,"(223.07,146.73)",6,Single,Game,,,,,,,,,,,,,,,,,,,,,,,,,,,,,,,,,,,,,,,,,,,,,,,,,,,,,,,,,,,,,,,
Player_4,2026-02-04T11:31:59.393359,singleTarget,1.0,10.0,True,100.0,100.0,0.0,1552.0,0.0,"(214.39,434.46)",6,Single,Game,,,,,,,,,,,,,,,,,,,,,,,,,,,,,,,,,,,,,,,,,,,,,,,,,,,,,,,,,,,,,,,
Player_4,2026-02-04T11:32:20.542629,singleTarget,2.0,20.0,True,100.0,100.0,0.0,1327.0,0.0,"(137.88,233.11)",6,Single,Game,,,,,,,,,,,,,,,,,,,,,,,,,,,,,,,,,,,,,,,,,,,,,,,,,,,,,,,,,,,,,,,
Player_4,2026-02-04T11:32:28.862464,singleTarget,3.0,30.0,True,100.0,100.0,0.0,3359.0,0.0,"(227.20,535.78)",6,Single,Game,,,,,,,,,,,,,,,,,,,,,,,,,,,,,,,,,,,,,,,,,,,,,,,,,,,,,,,,,,,,,,,
Player_4,2026-02-04T11:32:40.676918,singleTarget,4.0,0.0,True,11.11,100.0,8.0,7516.0,0.0,"(185.86,572.36)",6,Single,Game,,,,,,,,,,,,,,,,,,,,,,,,,,,,,,,,,,,,,,,,,,,,,,,,,,,,,,,,,,,,,,,
Player_4,2026-02-04T11:32:51.007244,singleTarget,3.0,10.0,True,100.0,100.0,0.0,2867.0,0.0,"(228.40,364.04)",6,Single,Game,,,,,,,,,,,,,,,,,,,,,,,,,,,,,,,,,,,,,,,,,,,,,,,,,,,,,,,,,,,,,,,
Player_4,2026-02-04T11:33:09.611374,singleTarget,4.0,10.0,False,100.0,0.0,0.0,0.0,0.0,,6,Single,Game,,,,,,,,,,,,,,,,,,,,,,,,,,,,,,,,,,,,,,,,,,,,,,,,,,,,,,,,,,,,,,,
Player_4,2026-02-04T11:33:38.367227,singleTarget,4.0,-10.0,False,33.33,0.0,2.0,0.0,0.0,,6,Single,Game,,,,,,,,,,,,,,,,,,,,,,,,,,,,,,,,,,,,,,,,,,,,,,,,,,,,,,,,,,,,,,,
Player_4,2026-02-04T11:33:51.212788,singleTarget,4.0,10.0,True,100.0,100.0,0.0,2926.0,0.0,"(261.39,37.67)",6,Single,Game,,,,,,,,,,,,,,,,,,,,,,,,,,,,,,,,,,,,,,,,,,,,,,,,,,,,,,,,,,,,,,,
Player_4,2026-02-04T11:33:58.428070,singleTarget,5.0,20.0,True,100.0,100.0,0.0,1508.0,0.0,"(198.82,401.53)",6,Single,Game,,,,,,,,,,,,,,,,,,,,,,,,,,,,,,,,,,,,,,,,,,,,,,,,,,,,,,,,,,,,,,,
Player_4,2026-02-04T11:34:05.100155,singleTarget,6.0,30.0,True,100.0,100.0,0.0,1351.0,0.0,"(138.33,79.40)",6,Single,Game,,,,,,,,,,,,,,,,,,,,,,,,,,,,,,,,,,,,,,,,,,,,,,,,,,,,,,,,,,,,,,,
Player_4,2026-02-04T11:34:11.859420,singleTarget,7.0,40.0,True,100.0,100.0,0.0,3171.0,0.0,"(45.41,566.57)",6,Single,Game,,,,,,,,,,,,,,,,,,,,,,,,,,,,,,,,,,,,,,,,,,,,,,,,,,,,,,,,,,,,,,,
Player_4,2026-02-04T11:34:18.458244,singleTarget,8.0,50.0,True,100.0,100.0,0.0,1312.0,0.0,"(227.55,142.88)",6,Single,Game,,,,,,,,,,,,,,,,,,,,,,,,,,,,,,,,,,,,,,,,,,,,,,,,,,,,,,,,,,,,,,,
Player_4,2026-02-04T11:34:23.841605,singleTarget,9.0,60.0,True,100.0,100.0,0.0,1231.0,0.0,"(255.83,358.98)",6,Single,Game,,,,,,,,,,,,,,,,,,,,,,,,,,,,,,,,,,,,,,,,,,,,,,,,,,,,,,,,,,,,,,,
Player_4,2026-02-04T11:34:43.466398,singleTarget,10.0,55.0,False,50.0,0.0,1.0,0.0,0.0,,6,Single,Game,,,,,,,,,,,,,,,,,,,,,,,,,,,,,,,,,,,,,,,,,,,,,,,,,,,,,,,,,,,,,,,
Player_4,2026-02-04T11:34:49.739574,singleTarget,10.0,10.0,True,100.0,100.0,0.0,2504.0,0.0,"(247.27,164.59)",6,Single,Game,,,,,,,,,,,,,,,,,,,,,,,,,,,,,,,,,,,,,,,,,,,,,,,,,,,,,,,,,,,,,,,
Player_4,2026-02-04T11:34:57.830127,singleTarget,11.0,20.0,True,100.0,100.0,0.0,4472.0,0.0,"(82.15,532.19)",6,Single,Game,,,,,,,,,,,,,,,,,,,,,,,,,,,,,,,,,,,,,,,,,,,,,,,,,,,,,,,,,,,,,,,
Player_4,2026-02-04T11:35:01.614082,singleTarget,12.0,30.0,True,100.0,100.0,0.0,1249.0,0.0,"(251.65,160.69)",6,Single,Game,,,,,,,,,,,,,,,,,,,,,,,,,,,,,,,,,,,,,,,,,,,,,,,,,,,,,,,,,,,,,,,
Player_4,2026-02-04T11:35:11.751311,singleTarget,13.0,35.0,True,50.0,100.0,1.0,6655.0,0.0,"(141.15,194.15)",6,Single,Game,,,,,,,,,,,,,,,,,,,,,,,,,,,,,,,,,,,,,,,,,,,,,,,,,,,,,,,,,,,,,,,
Player_4,2026-02-04T11:35:16.618147,singleTarget,14.0,45.0,True,100.0,100.0,0.0,1598.0,0.0,"(33.50,173.82)",6,Single,Game,,,,,,,,,,,,,,,,,,,,,,,,,,,,,,,,,,,,,,,,,,,,,,,,,,,,,,,,,,,,,,,
Player_4,2026-02-04T11:35:29.220578,singleTarget,15.0,50.0,True,50.0,100.0,1.0,7953.0,0.0,"(96.59,288.85)",6,Single,Game,,,,,,,,,,,,,,,,,,,,,,,,,,,,,,,,,,,,,,,,,,,,,,,,,,,,,,,,,,,,,,,
Player_2,2026-02-04T14:12:49.881941,singleTarget,1.0,10.0,True,100.0,100.0,0.0,1319.0,0.0,"(138.23,114.98)",7,Single,Game,,,,,,,,,,,,,,,,,,,,,,,,,,,,,,,,,,,,,,,,,,,,,,,,,,,,,,,,,,,,,,,
Player_2,2026-02-04T14:13:02.212202,singleTarget,2.0,20.0,True,100.0,100.0,0.0,1351.0,0.0,"(262.49,427.49)",7,Single,Game,,,,,,,,,,,,,,,,,,,,,,,,,,,,,,,,,,,,,,,,,,,,,,,,,,,,,,,,,,,,,,,
Player_2,2026-02-04T14:13:21.008487,singleTarget,3.0,30.0,True,100.0,100.0,0.0,2085.0,0.0,"(82.29,337.00)",7,Single,Game,,,,,,,,,,,,,,,,,,,,,,,,,,,,,,,,,,,,,,,,,,,,,,,,,,,,,,,,,,,,,,,
Player_2,2026-02-04T14:13:31.812880,singleTarget,4.0,40.0,True,100.0,100.0,0.0,2077.0,0.0,"(223.35,91.60)",7,Single,Game,,,,,,,,,,,,,,,,,,,,,,,,,,,,,,,,,,,,,,,,,,,,,,,,,,,,,,,,,,,,,,,
Player_2,2026-02-04T14:13:46.664423,singleTarget,5.0,50.0,True,100.0,100.0,0.0,2878.0,0.0,"(277.98,458.78)",7,Single,Game,,,,,,,,,,,,,,,,,,,,,,,,,,,,,,,,,,,,,,,,,,,,,,,,,,,,,,,,,,,,,,,
Player_2,2026-02-04T14:14:00.589324,singleTarget,6.0,60.0,True,100.0,100.0,0.0,4080.0,0.0,"(276.71,473.83)",7,Single,Game,,,,,,,,,,,,,,,,,,,,,,,,,,,,,,,,,,,,,,,,,,,,,,,,,,,,,,,,,,,,,,,
Player_2,2026-02-04T14:14:09.016790,singleTarget,7.0,70.0,True,100.0,100.0,0.0,1769.0,0.0,"(289.40,186.21)",7,Single,Game,,,,,,,,,,,,,,,,,,,,,,,,,,,,,,,,,,,,,,,,,,,,,,,,,,,,,,,,,,,,,,,
Player_2,2026-02-04T14:14:18.510863,singleTarget,8.0,80.0,True,100.0,100.0,0.0,1226.0,0.0,"(48.64,147.75)",7,Single,Game,,,,,,,,,,,,,,,,,,,,,,,,,,,,,,,,,,,,,,,,,,,,,,,,,,,,,,,,,,,,,,,
Player_2,2026-02-04T14:14:26.303353,singleTarget,9.0,90.0,True,100.0,100.0,0.0,1284.0,0.0,"(73.89,247.32)",7,Single,Game,,,,,,,,,,,,,,,,,,,,,,,,,,,,,,,,,,,,,,,,,,,,,,,,,,,,,,,,,,,,,,,
Player_2,2026-02-04T14:14:35.741010,singleTarget,10.0,100.0,True,100.0,100.0,0.0,3897.0,0.0,"(280.22,219.71)",7,Single,Game,,,,,,,,,,,,,,,,,,,,,,,,,,,,,,,,,,,,,,,,,,,,,,,,,,,,,,,,,,,,,,,
Player_2,2026-02-04T14:14:46.978678,singleTarget,11.0,110.0,True,100.0,100.0,0.0,3604.0,0.0,"(129.55,483.75)",7,Single,Game,,,,,,,,,,,,,,,,,,,,,,,,,,,,,,,,,,,,,,,,,,,,,,,,,,,,,,,,,,,,,,,
Player_2,2026-02-04T14:14:56.973214,singleTarget,12.0,120.0,True,100.0,100.0,0.0,4355.0,0.0,"(125.03,468.69)",7,Single,Game,,,,,,,,,,,,,,,,,,,,,,,,,,,,,,,,,,,,,,,,,,,,,,,,,,,,,,,,,,,,,,,
Player_2,2026-02-04T14:15:08.302364,singleTarget,13.0,130.0,True,100.0,100.0,0.0,3612.0,0.0,"(207.09,105.58)",7,Single,Game,,,,,,,,,,,,,,,,,,,,,,,,,,,,,,,,,,,,,,,,,,,,,,,,,,,,,,,,,,,,,,,
Player_2,2026-02-04T14:15:25.439385,singleTarget,14.0,140.0,True,100.0,100.0,0.0,10779.0,0.0,"(159.43,98.03)",7,Single,Game,,,,,,,,,,,,,,,,,,,,,,,,,,,,,,,,,,,,,,,,,,,,,,,,,,,,,,,,,,,,,,,
Player_2,2026-02-04T14:15:38.262752,singleTarget,15.0,150.0,True,100.0,100.0,0.0,1651.0,0.0,"(142.22,226.85)",7,Single,Game,,,,,,,,,,,,,,,,,,,,,,,,,,,,,,,,,,,,,,,,,,,,,,,,,,,,,,,,,,,,,,,
Player_2,2026-02-04T14:28:59.952596,singleTarget,1.0,10.0,True,100.0,100.0,0.0,1392.0,0.0,"(209.02,274.43)",8,Single,Game,,,,,,,,,,,,,,,,,,,,,,,,,,,,,,,,,,,,,,,,,,,,,,,,,,,,,,,,,,,,,,,
Player_2,2026-02-04T14:29:07.273818,singleTarget,2.0,20.0,True,100.0,100.0,0.0,1267.0,0.0,"(105.18,548.93)",8,Single,Game,,,,,,,,,,,,,,,,,,,,,,,,,,,,,,,,,,,,,,,,,,,,,,,,,,,,,,,,,,,,,,,
Player_2,2026-02-04T14:29:15.800420,singleTarget,3.0,30.0,True,100.0,100.0,0.0,1318.0,0.0,"(254.28,262.97)",8,Single,Game,,,,,,,,,,,,,,,,,,,,,,,,,,,,,,,,,,,,,,,,,,,,,,,,,,,,,,,,,,,,,,,
Player_2,2026-02-04T14:29:39.887460,singleTarget,4.0,-25.0,False,8.33,0.0,11.0,0.0,0.0,,8,Single,Game,,,,,,,,,,,,,,,,,,,,,,,,,,,,,,,,,,,,,,,,,,,,,,,,,,,,,,,,,,,,,,,
Player_2,2026-02-04T14:30:06.469302,singleTarget,4.0,-35.0,False,12.5,0.0,7.0,0.0,0.0,,8,Single,Game,,,,,,,,,,,,,,,,,,,,,,,,,,,,,,,,,,,,,,,,,,,,,,,,,,,,,,,,,,,,,,,
Player_2,2026-02-04T14:30:17.517814,singleTarget,4.0,10.0,True,100.0,100.0,0.0,2828.0,0.0,"(61.41,185.23)",8,Single,Game,,,,,,,,,,,,,,,,,,,,,,,,,,,,,,,,,,,,,,,,,,,,,,,,,,,,,,,,,,,,,,,
Player_2,2026-02-04T14:30:29.139490,singleTarget,5.0,20.0,True,100.0,100.0,0.0,1643.0,0.0,"(162.96,184.86)",8,Single,Game,,,,,,,,,,,,,,,,,,,,,,,,,,,,,,,,,,,,,,,,,,,,,,,,,,,,,,,,,,,,,,,
Player_2,2026-02-04T14:30:37.773806,singleTarget,6.0,30.0,True,100.0,100.0,0.0,1452.0,0.0,"(125.61,306.73)",8,Single,Game,,,,,,,,,,,,,,,,,,,,,,,,,,,,,,,,,,,,,,,,,,,,,,,,,,,,,,,,,,,,,,,
Player_2,2026-02-04T14:30:49.407414,singleTarget,7.0,40.0,True,100.0,100.0,0.0,4123.0,0.0,"(303.28,526.54)",8,Single,Game,,,,,,,,,,,,,,,,,,,,,,,,,,,,,,,,,,,,,,,,,,,,,,,,,,,,,,,,,,,,,,,
Player_2,2026-02-04T14:31:01.144191,singleTarget,8.0,50.0,True,100.0,100.0,0.0,1535.0,0.0,"(110.92,243.56)",8,Single,Game,,,,,,,,,,,,,,,,,,,,,,,,,,,,,,,,,,,,,,,,,,,,,,,,,,,,,,,,,,,,,,,
Player_2,2026-02-04T14:31:10.631956,singleTarget,9.0,60.0,True,100.0,100.0,0.0,1944.0,0.0,"(78.95,508.72)",8,Single,Game,,,,,,,,,,,,,,,,,,,,,,,,,,,,,,,,,,,,,,,,,,,,,,,,,,,,,,,,,,,,,,,
Player_2,2026-02-04T14:31:26.281243,singleTarget,10.0,70.0,True,100.0,100.0,0.0,7115.0,0.0,"(273.54,363.56)",8,Single,Game,,,,,,,,,,,,,,,,,,,,,,,,,,,,,,,,,,,,,,,,,,,,,,,,,,,,,,,,,,,,,,,
Player_2,2026-02-04T14:31:37.337092,singleTarget,11.0,80.0,True,100.0,100.0,0.0,2120.0,0.0,"(240.49,167.53)",8,Single,Game,,,,,,,,,,,,,,,,,,,,,,,,,,,,,,,,,,,,,,,,,,,,,,,,,,,,,,,,,,,,,,,
Player_2,2026-02-04T14:31:48.482400,singleTarget,12.0,90.0,True,100.0,100.0,0.0,4463.0,0.0,"(142.71,604.44)",8,Single,Game,,,,,,,,,,,,,,,,,,,,,,,,,,,,,,,,,,,,,,,,,,,,,,,,,,,,,,,,,,,,,,,
Player_2,2026-02-04T14:32:12.484741,singleTarget,13.0,85.0,False,50.0,0.0,1.0,0.0,0.0,,8,Single,Game,,,,,,,,,,,,,,,,,,,,,,,,,,,,,,,,,,,,,,,,,,,,,,,,,,,,,,,,,,,,,,,
Player_2,2026-02-04T14:32:21.697447,singleTarget,13.0,10.0,True,100.0,100.0,0.0,3129.0,0.0,"(48.62,281.52)",8,Single,Game,,,,,,,,,,,,,,,,,,,,,,,,,,,,,,,,,,,,,,,,,,,,,,,,,,,,,,,,,,,,,,,
Player_2,2026-02-04T14:32:38.892448,singleTarget,14.0,20.0,True,100.0,100.0,0.0,2386.0,0.0,"(287.29,432.03)",8,Single,Game,,,,,,,,,,,,,,,,,,,,,,,,,,,,,,,,,,,,,,,,,,,,,,,,,,,,,,,,,,,,,,,
Player_2,2026-02-04T14:32:54.626475,singleTarget,15.0,30.0,True,100.0,100.0,0.0,7125.0,0.0,"(149.96,46.06)",8,Single,Game,,,,,,,,,,,,,,,,,,,,,,,,,,,,,,,,,,,,,,,,,,,,,,,,,,,,,,,,,,,,,,,
Player_2,2026-02-04T14:37:45.234159,singleTarget,1.0,10.0,True,100.0,100.0,0.0,1076.0,0.0,"(82.61,299.73)",9,Single,Game,,,,,,,,,,,,,,,,,,,,,,,,,,,,,,,,,,,,,,,,,,,,,,,,,,,,,,,,,,,,,,,
Player_2,2026-02-04T14:37:59.415520,singleTarget,2.0,20.0,True,100.0,100.0,0.0,1101.0,0.0,"(93.59,534.53)",9,Single,Game,,,,,,,,,,,,,,,,,,,,,,,,,,,,,,,,,,,,,,,,,,,,,,,,,,,,,,,,,,,,,,,
Player_2,2026-02-04T14:38:09.652622,singleTarget,3.0,30.0,True,100.0,100.0,0.0,1110.0,0.0,"(185.82,479.46)",9,Single,Game,,,,,,,,,,,,,,,,,,,,,,,,,,,,,,,,,,,,,,,,,,,,,,,,,,,,,,,,,,,,,,,
Player_2,2026-02-04T14:38:23.093988,singleTarget,4.0,40.0,True,100.0,100.0,0.0,3221.0,0.0,"(268.94,547.90)",9,Single,Game,,,,,,,,,,,,,,,,,,,,,,,,,,,,,,,,,,,,,,,,,,,,,,,,,,,,,,,,,,,,,,,
Player_2,2026-02-04T14:38:37.827525,singleTarget,5.0,50.0,True,100.0,100.0,0.0,1919.0,0.0,"(242.78,494.45)",9,Single,Game,,,,,,,,,,,,,,,,,,,,,,,,,,,,,,,,,,,,,,,,,,,,,,,,,,,,,,,,,,,,,,,
Player_2,2026-02-04T14:38:54.854313,singleTarget,6.0,60.0,True,100.0,100.0,0.0,2451.0,0.0,"(147.13,213.87)",9,Single,Game,,,,,,,,,,,,,,,,,,,,,,,,,,,,,,,,,,,,,,,,,,,,,,,,,,,,,,,,,,,,,,,
Player_2,2026-02-04T14:39:06.511200,singleTarget,7.0,70.0,True,100.0,100.0,0.0,3404.0,0.0,"(133.73,365.52)",9,Single,Game,,,,,,,,,,,,,,,,,,,,,,,,,,,,,,,,,,,,,,,,,,,,,,,,,,,,,,,,,,,,,,,
Player_2,2026-02-04T14:39:21.227776,singleTarget,8.0,80.0,True,100.0,100.0,0.0,1509.0,0.0,"(266.44,380.74)",9,Single,Game,,,,,,,,,,,,,,,,,,,,,,,,,,,,,,,,,,,,,,,,,,,,,,,,,,,,,,,,,,,,,,,
Player_2,2026-02-04T14:39:31.198442,singleTarget,9.0,90.0,True,100.0,100.0,0.0,1769.0,0.0,"(281.09,134.08)",9,Single,Game,,,,,,,,,,,,,,,,,,,,,,,,,,,,,,,,,,,,,,,,,,,,,,,,,,,,,,,,,,,,,,,
Player_2,2026-02-04T14:39:43.329056,singleTarget,10.0,100.0,True,100.0,100.0,0.0,2861.0,0.0,"(213.17,511.64)",9,Single,Game,,,,,,,,,,,,,,,,,,,,,,,,,,,,,,,,,,,,,,,,,,,,,,,,,,,,,,,,,,,,,,,
Player_2,2026-02-04T14:39:52.890253,singleTarget,11.0,110.0,True,100.0,100.0,0.0,1318.0,0.0,"(275.77,96.81)",9,Single,Game,,,,,,,,,,,,,,,,,,,,,,,,,,,,,,,,,,,,,,,,,,,,,,,,,,,,,,,,,,,,,,,
Player_2,2026-02-04T14:40:04.279443,singleTarget,12.0,120.0,True,100.0,100.0,0.0,3045.0,0.0,"(199.53,253.23)",9,Single,Game,,,,,,,,,,,,,,,,,,,,,,,,,,,,,,,,,,,,,,,,,,,,,,,,,,,,,,,,,,,,,,,
Player_2,2026-02-04T14:40:18.195289,singleTarget,13.0,130.0,True,100.0,100.0,0.0,5973.0,0.0,"(55.51,91.71)",9,Single,Game,,,,,,,,,,,,,,,,,,,,,,,,,,,,,,,,,,,,,,,,,,,,,,,,,,,,,,,,,,,,,,,
Player_2,2026-02-04T14:40:32.454572,singleTarget,14.0,140.0,True,100.0,100.0,0.0,5606.0,0.0,"(207.94,429.65)",9,Single,Game,,,,,,,,,,,,,,,,,,,,,,,,,,,,,,,,,,,,,,,,,,,,,,,,,,,,,,,,,,,,,,,
Player_2,2026-02-04T14:40:45.837616,singleTarget,15.0,150.0,True,100.0,100.0,0.0,3930.0,0.0,"(125.22,68.10)",9,Single,Game,,,,,,,,,,,,,,,,,,,,,,,,,,,,,,,,,,,,,,,,,,,,,,,,,,,,,,,,,,,,,,,
,,,,,,,,,,,,10,Single,Lab,,,,,,,,,,,,,,,,,,0.003455600000052,0.0078561999998783,0.0030874999993102,16.530548099999578,0.0338888888888888,-0.1716666666666666,1.0,0.0,0.0,,,,,,,,,,,,,,,,,,,,,,,10.0,1.0,2026-02-04_09h40.03.955,visual_search,,2025.2.4,59.860345813196105,2026-02-04 09h40.04.124925 +0530,,,,,,,
,,,,,,,,,,,,10,Single,Lab,red,0.0,0.0,0.0,[-0.135],[0.09],[1],[0],[0],[2.628650800000287],"['target', 'target']",0.0,0.0,0.0,2.0,16.595216400000027,,,,,,,,,,,16.582519099999445,16.595216400000027,0.0517001999996864,16.595216400000027,16.595216400000027,16.595216400000027,19.212353599999915,[-0.135],[0.09],[1],[0],[0],[2.628650800000287],"['target', 'target']",19.227840300000025,19.233368999999584,19.233368999999584,20.2272395,,,,,10.0,1.0,2026-02-04_09h40.03.955,visual_search,,2025.2.4,59.860345813196105,2026-02-04 09h40.04.124925 +0530,,,,,,,
,,,,,,,,,,,,10,Single,Lab,white,1.0,1.0,0.0,[-0.18333333333333332],[0.16444444444444445],[1],[0],[0],[1.5916637999998784],"['target', 'target']",0.0,1.0,1.0,1.0,20.284660899999835,,,,,,,,,,,20.269587699999647,20.284660899999835,0.0569310000000768,20.284660899999835,20.284660899999835,20.284660899999835,21.862275899999982,[-0.18333333333333332],[0.16444444444444445],[1],[0],[0],[1.5916637999998784],"['target', 'target']",21.8742542,21.87853779999932,21.87853779999932,22.87810379999973,,,,,10.0,1.0,2026-02-04_09h40.03.955,visual_search,,2025.2.4,59.860345813196105,2026-02-04 09h40.04.124925 +0530,,,,,,,
,,,,,,,,,,,,10,Single,Lab,white,2.0,2.0,0.0,[0.01888888888888889],[-0.09666666666666666],[1],[0],[0],[1.7272648999996818],"['target', 'target']",0.0,2.0,2.0,0.0,22.929591699999943,,,,,,,,,,,22.91800259999945,22.929591699999943,0.0555099000002883,22.929591699999943,22.929591699999943,22.929591699999943,24.646170699999857,[0.01888888888888889],[-0.09666666666666666],[1],[0],[0],[1.7272648999996818],"['target', 'target']",24.65955159999976,24.66487739999957,24.66487739999957,25.662704499999563,,,,,10.0,1.0,2026-02-04_09h40.03.955,visual_search,,2025.2.4,59.860345813196105,2026-02-04 09h40.04.124925 +0530,,,,,,,
,,,,,,,,,,,,10,Single,Lab,white,3.0,0.0,1.0,[-0.03166666666666667],[-0.15333333333333332],[1],[0],[0],[1.38530769999943],"['target', 'target']",1.0,0.0,3.0,1.0,25.72869659999924,,,,,,,,,,,25.713460299999497,25.72869659999924,0.0670727999995506,25.72869659999924,25.72869659999924,25.72869659999924,27.10005699999965,[-0.03166666666666667],[-0.15333333333333332],[1],[0],[0],[1.38530769999943],"['target', 'target']",27.10889689999931,27.11440219999986,27.11440219999986,28.11253089999991,,,,,10.0,1.0,2026-02-04_09h40.03.955,visual_search,,2025.2.4,59.860345813196105,2026-02-04 09h40.04.124925 +0530,,,,,,,
,,,,,,,,,,,,10,Single,Lab,white,4.0,1.0,1.0,[-0.13277777777777777],[-0.13555555555555557],[1],[0],[0],[1.3860214000005726],"['target', 'target']",1.0,1.0,4.0,0.0,28.158672999999908,,,,,,,,,,,28.1468376999992,28.158672999999908,0.0463185999997222,28.158672999999908,28.158672999999908,28.158672999999908,29.5337514999992,[-0.13277777777777777],[-0.13555555555555557],[1],[0],[0],[1.3860214000005726],"['target', 'target']",29.542212899999868,29.547474499999225,29.547474499999225,30.54763920000005,,,,,10.0,1.0,2026-02-04_09h40.03.955,visual_search,,2025.2.4,59.860345813196105,2026-02-04 09h40.04.124925 +0530,,,,,,,
,,,,,,,,,,,,10,Single,Lab,red,5.0,2.0,1.0,[-0.07388888888888889],[0.24222222222222223],[1],[0],[0],[1.588337799999863],"['target', 'target']",1.0,2.0,5.0,2.0,30.60719649999919,,,,,,,,,,,30.593145599999843,30.60719649999919,0.0589454000000841,30.60719649999919,30.60719649999919,30.60719649999919,32.18251479999981,[-0.07388888888888889],[0.24222222222222223],[1],[0],[0],[1.588337799999863],"['target', 'target']",32.192803099999765,32.197364099999504,32.197364099999504,33.1823732999992,33.23163989999921,33.23163989999921,,,10.0,1.0,2026-02-04_09h40.03.955,visual_search,,2025.2.4,59.860345813196105,2026-02-04 09h40.04.124925 +0530,,,,,,,
,,,,,,,,,,,,10,Single,Lab,red,6.0,0.0,2.0,[0.024444444444444446],[0.21611111111111111],[1],[0],[0],[1.0961889000000156],"['target', 'target']",2.0,0.0,6.0,2.0,33.23163989999921,,,,,,,,,,,33.21956729999965,33.23163989999921,0.0368236000003889,33.23163989999921,33.23163989999921,33.23163989999921,34.316459899999245,[0.024444444444444446],[0.21611111111111111],[1],[0],[0],[1.0961889000000156],"['target', 'target']",34.325077199999214,34.33080239999981,34.33080239999981,35.31794109999919,35.368098899999495,35.368098899999495,,,10.0,1.0,2026-02-04_09h40.03.955,visual_search,,2025.2.4,59.860345813196105,2026-02-04 09h40.04.124925 +0530,,,,,,,
,,,,,,,,,,,,10,Single,Lab,white,7.0,1.0,2.0,[-0.205],[0.20166666666666666],[1],[0],[0],[1.32670490000055],"['target', 'target']",2.0,1.0,7.0,1.0,35.368098899999495,,,,,,,,,,,35.3563596999993,35.368098899999495,0.0396093999997901,35.368098899999495,35.368098899999495,35.368098899999495,36.68392769999991,[-0.205],[0.20166666666666666],[1],[0],[0],[1.32670490000055],"['target', 'target']",36.69298189999972,36.698896500000046,36.698896500000046,37.68447389999983,37.74280980000003,37.74280980000003,,,10.0,1.0,2026-02-04_09h40.03.955,visual_search,,2025.2.4,59.860345813196105,2026-02-04 09h40.04.124925 +0530,,,,,,,
,,,,,,,,,,,,10,Single,Lab,white,8.0,2.0,2.0,[0.17666666666666667],[-0.06944444444444445],[1],[0],[0],[1.6365849000003436],"['target', 'target']",2.0,2.0,8.0,0.0,37.74280980000003,,,,,,,,,,,37.73091309999927,37.74280980000003,0.0467597999995632,37.74280980000003,37.74280980000003,37.74280980000003,39.3685803999997,[0.17666666666666667],[-0.06944444444444445],[1],[0],[0],[1.6365849000003436],"['target', 'target']",39.37846029999946,39.38449499999933,39.38449499999933,40.38371000000007,,,,,10.0,1.0,2026-02-04_09h40.03.955,visual_search,,2025.2.4,59.860345813196105,2026-02-04 09h40.04.124925 +0530,,,,,,,
,,,,,,,,,,,,10,Single,Lab,red,9.0,0.0,3.0,[-0.11833333333333333],[0.12],[1],[0],[0],[1.1755370000000767],"['target', 'target']",3.0,0.0,9.0,2.0,40.438737099999344,,,,,,,,,,,40.42571119999957,40.438737099999344,0.05688310000005,40.438737099999344,40.438737099999344,40.438737099999344,41.60220069999923,[-0.11833333333333333],[0.12],[1],[0],[0],[1.1755370000000767],"['target', 'target']",41.61039660000006,41.6164762999997,41.6164762999997,42.60304079999969,42.66243339999983,42.66243339999983,,,10.0,1.0,2026-02-04_09h40.03.955,visual_search,,2025.2.4,59.860345813196105,2026-02-04 09h40.04.124925 +0530,,,,,,,
,,,,,,,,,,,,10,Single,Lab,white,10.0,1.0,3.0,[0.0811111111111111],[-0.042222222222222223],[1],[0],[0],[1.1358372999993662],"['target', 'target']",3.0,1.0,10.0,0.0,42.66243339999983,,,,,,,,,,,42.65158840000004,42.66243339999983,0.0491900999995778,42.66243339999983,42.66243339999983,42.66243339999983,43.7883554,[0.0811111111111111],[-0.042222222222222223],[1],[0],[0],[1.1358372999993662],"['target', 'target']",43.79736289999983,43.80321089999961,43.80321089999961,44.8019703,,,,,10.0,1.0,2026-02-04_09h40.03.955,visual_search,,2025.2.4,59.860345813196105,2026-02-04 09h40.04.124925 +0530,,,,,,,
,,,,,,,,,,,,10,Single,Lab,white,11.0,2.0,3.0,[-0.10222222222222223],[0.041666666666666664],[1],[0],[0],[1.2468189000001075],"['target', 'target']",3.0,2.0,11.0,1.0,44.85131060000003,,,,,,,,,,,44.83946789999936,44.85131060000003,0.0508229999995819,44.85131060000003,44.85131060000003,44.85131060000003,46.08727259999978,[-0.10222222222222223],[0.041666666666666664],[1],[0],[0],[1.2468189000001075],"['target', 'target']",46.096384299999954,46.10179019999941,46.10179019999941,47.08614689999922,47.1356452,47.1356452,,,10.0,1.0,2026-02-04_09h40.03.955,visual_search,,2025.2.4,59.860345813196105,2026-02-04 09h40.04.124925 +0530,,,,,,,
,,,,,,,,,,,,10,Single,Lab,white,12.0,0.0,4.0,[0.021666666666666667],[0.22333333333333333],[1],[0],[0],[1.2815300000002026],"['target', 'target']",4.0,0.0,12.0,1.0,47.1356452,,,,,,,,,,,47.12348989999919,47.1356452,0.0359692000001814,47.1356452,47.1356452,47.1356452,48.40603589999955,[0.021666666666666667],[0.22333333333333333],[1],[0],[0],[1.2815300000002026],"['target', 'target']",48.417863199999374,48.42467570000008,48.42467570000008,49.41956969999956,,,,,10.0,1.0,2026-02-04_09h40.03.955,visual_search,,2025.2.4,59.860345813196105,2026-02-04 09h40.04.124925 +0530,,,,,,,
,,,,,,,,,,,,10,Single,Lab,white,13.0,1.0,4.0,[-0.13833333333333334],[0.115],[1],[0],[0],[1.166939700000512],"['target', 'target']",4.0,1.0,13.0,0.0,49.46719679999933,,,,,,,,,,,49.45564419999937,49.46719679999933,0.0493078999998033,49.46719679999933,49.46719679999933,49.46719679999933,50.62346569999954,[-0.13833333333333334],[0.115],[1],[0],[0],[1.166939700000512],"['target', 'target']",50.63199899999927,50.63777639999989,50.63777639999989,51.622451599999295,51.68001469999945,51.68001469999945,,,10.0,1.0,2026-02-04_09h40.03.955,visual_search,,2025.2.4,59.860345813196105,2026-02-04 09h40.04.124925 +0530,,,,,,,
,,,,,,,,,,,,10,Single,Lab,red,14.0,2.0,4.0,[-0.09],[-0.03944444444444444],[1],[0],[0],[1.076217099999667],"['target', 'target']",4.0,2.0,14.0,2.0,51.68001469999945,,,,,,,,,,,51.66434509999999,51.68001469999945,0.0406376999999338,51.68001469999945,51.68001469999945,51.68001469999945,52.74166679999962,[-0.09],[-0.03944444444444444],[1],[0],[0],[1.076217099999667],"['target', 'target']",52.74992369999927,52.75516769999922,52.75516769999922,53.73901380000007,53.754250499999216,53.754250499999216,,,10.0,1.0,2026-02-04_09h40.03.955,visual_search,,2025.2.4,59.860345813196105,2026-02-04 09h40.04.124925 +0530,,,,,,,
,,,,,,,,,,,,10,Single,Lab,,,,,,,,,,,,,,,,,,,,,,,,,,,,,,,,,,,,,,,,,,,,,,,53.745033899999726,53.754250499999216,,,,,,,,,,,,,,,
,,,,,,,,,,,,11,Single,Lab,,,,,,,,,,,,,,,,,,0.0034316999999646,0.0078563999995822,0.003111600000011,4.790109099999427,0.0722222222222222,-0.2755555555555555,1.0,0.0,0.0,,,,,,,,,,,,,,,,,,,,,,,11.0,1.0,2026-02-04_09h58.44.739,visual_search,,2025.2.4,59.96001865952517,2026-02-04 09h58.44.853571 +0530,,,,,,,
,,,,,,,,,,,,11,Single,Lab,white,0.0,0.0,0.0,[-0.18444444444444444],[0.12166666666666667],[1],[0],[0],[1.5846288999991884],"['target', 'target']",0.0,0.0,0.0,0.0,4.852898499999355,,,,,,,,,,,4.83890159999919,4.852898499999355,0.048612999999932,4.852898499999355,4.852898499999355,4.852898499999355,6.424601299999267,[-0.18444444444444444],[0.12166666666666667],[1],[0],[0],[1.5846288999991884],"['target', 'target']",6.439975599999343,6.4457635999997365,6.4457635999997365,7.439272399999936,,,,,11.0,1.0,2026-02-04_09h58.44.739,visual_search,,2025.2.4,59.96001865952517,2026-02-04 09h58.44.853571 +0530,,,,,,,
,,,,,,,,,,,,11,Single,Lab,white,1.0,1.0,0.0,[-0.06888888888888889],[0.1922222222222222],[1],[0],[0],[1.4616648000001078],"['target', 'target']",0.0,1.0,1.0,1.0,7.491826799999217,,,,,,,,,,,7.479788599999665,7.491826799999217,0.0548735000002125,7.491826799999217,7.491826799999217,7.491826799999217,8.94235739999931,[-0.06888888888888889],[0.1922222222222222],[1],[0],[0],[1.4616648000001078],"['target', 'target']",8.954632599999968,8.95942179999929,8.95942179999929,9.956969599999866,,,,,11.0,1.0,2026-02-04_09h58.44.739,visual_search,,2025.2.4,59.96001865952517,2026-02-04 09h58.44.853571 +0530,,,,,,,
,,,,,,,,,,,,11,Single,Lab,red,2.0,2.0,0.0,[0.20055555555555554],[-0.10055555555555555],[1],[0],[0],[1.544093200000134],"['target', 'target']",0.0,2.0,2.0,2.0,10.012433999999304,,,,,,,,,,,10.000440199999504,10.012433999999304,0.0578688000005058,10.012433999999304,10.012433999999304,10.012433999999304,11.545660899999348,[0.20055555555555554],[-0.10055555555555555],[1],[0],[0],[1.544093200000134],"['target', 'target']",11.56308849999914,11.567637699999976,11.567637699999976,12.558807499999602,,,,,11.0,1.0,2026-02-04_09h58.44.739,visual_search,,2025.2.4,59.96001865952517,2026-02-04 09h58.44.853571 +0530,,,,,,,
,,,,,,,,,,,,11,Single,Lab,white,3.0,0.0,1.0,[-0.15333333333333332],[0.18666666666666668],[1],[0],[0],[1.3933900000001813],"['target', 'target']",1.0,0.0,3.0,0.0,12.611474299999829,,,,,,,,,,,12.598708299999998,12.611474299999829,0.0526945000001433,12.611474299999829,12.611474299999829,12.611474299999829,13.993891099999928,[-0.15333333333333332],[0.18666666666666668],[1],[0],[0],[1.3933900000001813],"['target', 'target']",14.00416309999946,14.008562399999391,14.008562399999391,14.993991199999982,15.05086239999946,15.05086239999946,,,11.0,1.0,2026-02-04_09h58.44.739,visual_search,,2025.2.4,59.96001865952517,2026-02-04 09h58.44.853571 +0530,,,,,,,
,,,,,,,,,,,,11,Single,Lab,white,4.0,1.0,1.0,[-0.0044444444444444444],[0.10111111111111111],[1],[0],[0],[1.2903355999997075],"['target', 'target']",1.0,1.0,4.0,1.0,15.05086239999946,,,,,,,,,,,15.03890339999998,15.05086239999946,0.044666199999483,15.05086239999946,15.05086239999946,15.05086239999946,16.33023669999966,[-0.0044444444444444444],[0.10111111111111111],[1],[0],[0],[1.2903355999997075],"['target', 'target']",16.339706699999624,16.34500449999996,16.34500449999996,17.34325439999975,,,,,11.0,1.0,2026-02-04_09h58.44.739,visual_search,,2025.2.4,59.96001865952517,2026-02-04 09h58.44.853571 +0530,,,,,,,
,,,,,,,,,,,,11,Single,Lab,red,5.0,2.0,1.0,[-0.11944444444444445],[-0.08333333333333333],[1],[0],[0],[1.5687041999999565],"['target', 'target']",1.0,2.0,5.0,2.0,17.404787799999212,,,,,,,,,,,17.392580599999746,17.404787799999212,0.0621292000005269,17.404787799999212,17.404787799999212,17.404787799999212,18.962289099999907,[-0.11944444444444445],[-0.08333333333333333],[1],[0],[0],[1.5687041999999565],"['target', 'target']",18.97176939999917,18.97765369999979,18.97765369999979,19.96323769999981,20.018446799999765,20.018446799999765,,,11.0,1.0,2026-02-04_09h58.44.739,visual_search,,2025.2.4,59.96001865952517,2026-02-04 09h58.44.853571 +0530,,,,,,,
,,,,,,,,,,,,11,Single,Lab,red,6.0,0.0,2.0,[0.03722222222222222],[0.042777777777777776],[1],[0],[0],[1.3384476000001087],"['target', 'target']",2.0,0.0,6.0,2.0,20.018446799999765,,,,,,,,,,,20.00603129999945,20.018446799999765,0.0434371000001192,20.018446799999765,20.018446799999765,20.018446799999765,21.345534000000043,[0.03722222222222222],[0.042777777777777776],[1],[0],[0],[1.3384476000001087],"['target', 'target']",21.353827299999462,21.359982499999205,21.359982499999205,22.34661379999943,22.40735129999939,22.40735129999939,,,11.0,1.0,2026-02-04_09h58.44.739,visual_search,,2025.2.4,59.96001865952517,2026-02-04 09h58.44.853571 +0530,,,,,,,
,,,,,,,,,,,,11,Single,Lab,white,7.0,1.0,2.0,[0.045],[-0.1288888888888889],[1],[0],[0],[1.3513446000006297],"['target', 'target']",2.0,1.0,7.0,0.0,22.40735129999939,,,,,,,,,,,22.394959799999924,22.40735129999939,0.0491547999999966,22.40735129999939,22.40735129999939,22.40735129999939,23.7479186999999,[0.045],[-0.1288888888888889],[1],[0],[0],[1.3513446000006297],"['target', 'target']",23.75656429999981,23.761829099999886,23.761829099999886,24.747786599999927,24.800646400000005,24.800646400000005,,,11.0,1.0,2026-02-04_09h58.44.739,visual_search,,2025.2.4,59.96001865952517,2026-02-04 09h58.44.853571 +0530,,,,,,,
,,,,,,,,,,,,11,Single,Lab,white,8.0,2.0,2.0,[-0.1411111111111111],[-0.16777777777777778],[1],[0],[0],[1.2446373000002495],"['target', 'target']",2.0,2.0,8.0,1.0,24.800646400000005,,,,,,,,,,,24.787279499999386,24.800646400000005,0.0391147999998793,24.800646400000005,24.800646400000005,24.800646400000005,26.03296599999976,[-0.1411111111111111],[-0.16777777777777778],[1],[0],[0],[1.2446373000002495],"['target', 'target']",26.04309209999974,26.04995119999967,26.04995119999967,27.04656049999994,,,,,11.0,1.0,2026-02-04_09h58.44.739,visual_search,,2025.2.4,59.96001865952517,2026-02-04 09h58.44.853571 +0530,,,,,,,
,,,,,,,,,,,,11,Single,Lab,red,9.0,0.0,3.0,[0.09555555555555556],[-0.12944444444444445],[1],[0],[0],[1.260494699999981],"['target', 'target']",3.0,0.0,9.0,2.0,27.098609299999225,,,,,,,,,,,27.08640379999997,27.098609299999225,0.0532051000000137,27.098609299999225,27.098609299999225,27.098609299999225,28.34780409999985,[0.09555555555555556],[-0.12944444444444445],[1],[0],[0],[1.260494699999981],"['target', 'target']",28.356298499999863,28.362647099999776,28.362647099999776,29.34732269999949,29.398184699999547,29.398184699999547,,,11.0,1.0,2026-02-04_09h58.44.739,visual_search,,2025.2.4,59.96001865952517,2026-02-04 09h58.44.853571 +0530,,,,,,,
,,,,,,,,,,,,11,Single,Lab,white,10.0,1.0,3.0,[0.235],[-0.15888888888888889],[1],[0],[0],[1.662614400000166],"['target', 'target']",3.0,1.0,10.0,1.0,29.398184699999547,,,,,,,,,,,29.385341199999857,29.398184699999547,0.0372013000005608,29.398184699999547,29.398184699999547,29.398184699999547,31.048918699999376,[0.235],[-0.15888888888888889],[1],[0],[0],[1.662614400000166],"['target', 'target']",31.0570103,31.06332619999921,31.06332619999921,32.04925469999944,32.10067789999994,32.10067789999994,,,11.0,1.0,2026-02-04_09h58.44.739,visual_search,,2025.2.4,59.96001865952517,2026-02-04 09h58.44.853571 +0530,,,,,,,
,,,,,,,,,,,,11,Single,Lab,white,11.0,2.0,3.0,[-0.17444444444444446],[-0.03277777777777778],[1],[0],[0],[1.5642688999996608],"['target', 'target']",3.0,2.0,11.0,0.0,32.10067789999994,,,,,,,,,,,32.0871819999993,32.10067789999994,0.0380501999998159,32.10067789999994,32.10067789999994,32.10067789999994,33.65255669999988,[-0.17444444444444446],[-0.03277777777777778],[1],[0],[0],[1.5642688999996608],"['target', 'target']",33.661893399999826,33.66904559999966,33.66904559999966,34.66554149999956,,,,,11.0,1.0,2026-02-04_09h58.44.739,visual_search,,2025.2.4,59.96001865952517,2026-02-04 09h58.44.853571 +0530,,,,,,,
,,,,,,,,,,,,11,Single,Lab,white,12.0,0.0,4.0,[-0.005],[-0.03111111111111111],[1],[0],[0],[1.280130399999507],"['target', 'target']",4.0,0.0,12.0,0.0,34.71912909999992,,,,,,,,,,,34.705379600000015,34.71912909999992,0.0524844999999913,34.71912909999992,34.71912909999992,34.71912909999992,35.98694769999929,[-0.005],[-0.03111111111111111],[1],[0],[0],[1.280130399999507],"['target', 'target']",35.99628009999924,36.002995299999384,36.002995299999384,36.99941829999989,,,,,11.0,1.0,2026-02-04_09h58.44.739,visual_search,,2025.2.4,59.96001865952517,2026-02-04 09h58.44.853571 +0530,,,,,,,
,,,,,,,,,,,,11,Single,Lab,white,13.0,1.0,4.0,[-0.23722222222222222],[-0.050555555555555555],[1],[0],[0],[1.41367530000025],"['target', 'target']",4.0,1.0,13.0,1.0,37.05209249999916,,,,,,,,,,,37.03859639999973,37.05209249999916,0.0512393999997584,37.05209249999916,37.05209249999916,37.05209249999916,38.45333489999939,[-0.23722222222222222],[-0.050555555555555555],[1],[0],[0],[1.41367530000025],"['target', 'target']",38.463242799999534,38.46923339999921,38.46923339999921,39.46697969999968,,,,,11.0,1.0,2026-02-04_09h58.44.739,visual_search,,2025.2.4,59.96001865952517,2026-02-04 09h58.44.853571 +0530,,,,,,,
,,,,,,,,,,,,11,Single,Lab,red,14.0,2.0,4.0,[0.1938888888888889],[0.18722222222222223],[1],[0],[0],[1.5152158999999301],"['target', 'target']",4.0,2.0,14.0,2.0,39.52131709999958,,,,,,,,,,,39.5072840999992,39.52131709999958,0.053735499999675,39.52131709999958,39.52131709999958,39.52131709999958,41.02383179999924,[0.1938888888888889],[0.18722222222222223],[1],[0],[0],[1.5152158999999301],"['target', 'target']",41.03376799999933,41.04061029999957,41.04061029999957,42.034925299999486,,,,,11.0,1.0,2026-02-04_09h58.44.739,visual_search,,2025.2.4,59.96001865952517,2026-02-04 09h58.44.853571 +0530,,,,,,,
,,,,,,,,,,,,11,Single,Lab,,,,,,,,,,,,,,,,,,,,,,,,,,,,,,,,,,,,,,,,,,,,,,,42.045118199999706,42.05112629999985,,,,,,,,,,,,,,,
,,,,,,,,,,,,12,Single,Lab,,,,,,,,,,,,,,,,,,0.0084775999999919,0.0158711000000266,0.0077966999999716,2.9787167000000068,0.0177777777777777,-0.0055555555555555,1.0,0.0,0.0,,,,,,,,,,,,,,,,,,,,,,,12,1.0,2026-02-04_10h30.24.878,visual_search,,2024.1.5,,2026-02-04 10h30.50.313313 +0530,,,,,,,
,,,,,,,,,,,,12,Single,Lab,white,,,,[-0.15166666666666667],[-0.059444444444444446],[1],[0],[0],[1.8533199000000309],['target'],0.0,0.0,0.0,0.0,3.141406599999982,,,,,,,,,,,3.0301569000000086,3.141406599999982,0.1336688999999751,3.141406599999982,3.141406599999982,3.141406599999982,4.966828599999985,,,,,,,,4.968664900000022,4.992344199999991,4.992344199999991,5.977640399999984,,,,,12,1.0,2026-02-04_10h30.24.878,visual_search,,2024.1.5,,2026-02-04 10h30.50.313313 +0530,,,,,,,
,,,,,,,,,,,,12,Single,Lab,white,,,,[0.18944444444444444],[0.03277777777777778],[1],[0],[0],[1.592852999999991],['target'],0.0,1.0,1.0,1.0,6.073078699999996,,,,,,,,,,,5.978117800000007,6.073078699999996,0.0796296000000325,6.073078699999996,6.073078699999996,6.073078699999996,7.6418937000000255,,,,,,,,7.642721900000026,7.663139399999977,7.663139399999977,8.643981699999983,,,,,12,1.0,2026-02-04_10h30.24.878,visual_search,,2024.1.5,,2026-02-04 10h30.50.313313 +0530,,,,,,,
,,,,,,,,,,,,12,Single,Lab,red,,,,[-0.20777777777777778],[0.2288888888888889],[1],[0],[0],[1.1741900999999757],['target'],0.0,2.0,2.0,2.0,8.739661099999978,,,,,,,,,,,8.644442099999992,8.739661099999978,0.0724667000000067,8.739661099999978,8.739661099999978,8.739661099999978,9.890191800000023,,,,,,,,9.89102889999998,9.9122658,9.9122658,10.899025300000003,,,,,12,1.0,2026-02-04_10h30.24.878,visual_search,,2024.1.5,,2026-02-04 10h30.50.313313 +0530,,,,,,,
,,,,,,,,,,,,12,Single,Lab,red,,,,[0.011111111111111112],[-0.22777777777777777],[1],[0],[0],[1.4573685999999952],['target'],1.0,0.0,3.0,2.0,11.0045935,,,,,,,,,,,10.899497600000018,11.0045935,0.0865396000000373,11.0045935,11.0045935,11.0045935,12.435890099999996,,,,,,,,12.436829100000011,12.454620499999976,12.454620499999976,13.443144800000027,,,,,12,1.0,2026-02-04_10h30.24.878,visual_search,,2024.1.5,,2026-02-04 10h30.50.313313 +0530,,,,,,,
,,,,,,,,,,,,12,Single,Lab,white,,,,[-0.18666666666666668],[0.14],[1],[0],[0],[1.6508249999999975],['target'],1.0,1.0,4.0,1.0,13.54460130000001,,,,,,,,,,,13.443640500000017,13.54460130000001,0.080167700000004,13.54460130000001,13.54460130000001,13.54460130000001,15.168598700000018,,,,,,,,15.169436700000006,15.191541099999997,15.191541099999997,16.17049750000001,,,,,12,1.0,2026-02-04_10h30.24.878,visual_search,,2024.1.5,,2026-02-04 10h30.50.313313 +0530,,,,,,,
,,,,,,,,,,,,12,Single,Lab,white,,,,[0.24666666666666667],[-0.22166666666666668],[1],[0],[0],[2.8480357000000254],['target'],1.0,2.0,5.0,0.0,16.270742900000016,,,,,,,,,,,16.170945700000004,16.270742900000016,0.0747602000000142,16.270742900000016,16.270742900000016,16.270742900000016,19.092926799999987,,,,,,,,19.09383200000002,19.110237900000016,19.110237900000016,20.097669699999983,,,,,12,1.0,2026-02-04_10h30.24.878,visual_search,,2024.1.5,,2026-02-04 10h30.50.313313 +0530,,,,,,,
,,,,,,,,,,,,12,Single,Lab,white,,,,[0.11722222222222223],[-0.03333333333333333],[1],[0],[0],[1.4411118000000442],['target'],2.0,0.0,6.0,0.0,20.196049000000016,,,,,,,,,,,20.0981195,20.196049000000016,0.0765468999999825,20.196049000000016,20.196049000000016,20.196049000000016,21.61236710000003,,,,,,,,21.613224100000025,21.630704999999978,21.630704999999978,22.61961150000002,,,,,12,1.0,2026-02-04_10h30.24.878,visual_search,,2024.1.5,,2026-02-04 10h30.50.313313 +0530,,,,,,,
,,,,,,,,,,,,12,Single,Lab,white,,,,[-0.23777777777777778],[-0.08833333333333333],[1],[0],[0],[1.237369699999988],['target'],2.0,1.0,7.0,1.0,22.718503800000008,,,,,,,,,,,22.620054700000026,22.718503800000008,0.0799685000000067,22.718503800000008,22.718503800000008,22.718503800000008,23.931478500000026,,,,,,,,23.932323,23.94969909999997,23.94969909999997,24.94148899999999,,,,,12,1.0,2026-02-04_10h30.24.878,visual_search,,2024.1.5,,2026-02-04 10h30.50.313313 +0530,,,,,,,
,,,,,,,,,,,,12,Single,Lab,red,,,,[-0.03277777777777778],[-0.08666666666666667],[1],[0],[0],[0.8206554999999867],['target'],2.0,2.0,8.0,2.0,25.044117200000017,,,,,,,,,,,24.941931599999972,25.044117200000017,0.0853256999999985,25.044117200000017,25.044117200000017,25.044117200000017,25.839091900000028,,,,,,,,25.8399326,25.85723150000001,25.85723150000001,26.8466651,,,,,12,1.0,2026-02-04_10h30.24.878,visual_search,,2024.1.5,,2026-02-04 10h30.50.313313 +0530,,,,,,,
,,,,,,,,,,,,12,Single,Lab,white,,,,[-0.22277777777777777],[0.2111111111111111],[1],[0],[0],[1.1888703999999848],['target'],3.0,0.0,9.0,0.0,26.9459804,,,,,,,,,,,26.847191500000008,26.9459804,0.0793350000000145,26.9459804,26.9459804,26.9459804,28.10887280000003,,,,,,,,28.109709599999974,28.127509799999984,28.127509799999984,29.11301659999998,,,,,12,1.0,2026-02-04_10h30.24.878,visual_search,,2024.1.5,,2026-02-04 10h30.50.313313 +0530,,,,,,,
,,,,,,,,,,,,12,Single,Lab,white,,,,[0.03611111111111111],[-0.009444444444444445],[1],[0],[0],[0.967981199999997],['target'],3.0,1.0,10.0,1.0,29.216119900000024,,,,,,,,,,,29.113494300000013,29.216119900000024,0.0780034999999657,29.216119900000024,29.216119900000024,29.216119900000024,30.15664670000001,,,,,,,,30.157506300000023,30.1741169,30.1741169,31.158125299999995,31.257613900000024,31.257613900000024,,,12,1.0,2026-02-04_10h30.24.878,visual_search,,2024.1.5,,2026-02-04 10h30.50.313313 +0530,,,,,,,
,,,,,,,,,,,,12,Single,Lab,red,,,,[-0.1322222222222222],[0.21333333333333335],[1],[0],[0],[1.2551599999999894],['target'],3.0,2.0,11.0,2.0,31.257613900000024,,,,,,,,,,,31.158592699999986,31.257613900000024,0.0744449999999687,31.257613900000024,31.257613900000024,31.257613900000024,32.487794699999995,,,,,,,,32.48864659999998,32.50501200000002,32.50501200000002,33.4957493,,,,,12,1.0,2026-02-04_10h30.24.878,visual_search,,2024.1.5,,2026-02-04 10h30.50.313313 +0530,,,,,,,
,,,,,,,,,,,,12,Single,Lab,white,,,,[-0.20166666666666666],[-0.22166666666666668],[1],[0],[0],[2.0851288000000068],['target'],4.0,0.0,12.0,0.0,33.593310299999985,,,,,,,,,,,33.49619000000001,33.593310299999985,0.0788891000000262,33.593310299999985,33.593310299999985,33.593310299999985,35.65346090000003,,,,,,,,35.65429770000003,35.67138779999999,35.67138779999999,36.6616449,,,,,12,1.0,2026-02-04_10h30.24.878,visual_search,,2024.1.5,,2026-02-04 10h30.50.313313 +0530,,,,,,,
,,,,,,,,,,,,12,Single,Lab,red,,,,[-0.04555555555555556],[-0.22777777777777777],[1],[0],[0],[0.9957630000000108],['target'],4.0,1.0,13.0,2.0,36.759373400000015,,,,,,,,,,,36.66213570000002,36.759373400000015,0.0797371999999541,36.759373400000015,36.759373400000015,36.759373400000015,37.73065500000001,,,,,,,,37.731525499999975,37.74952289999999,37.74952289999999,38.73933169999998,,,,,12,1.0,2026-02-04_10h30.24.878,visual_search,,2024.1.5,,2026-02-04 10h30.50.313313 +0530,,,,,,,
,,,,,,,,,,,,12,Single,Lab,white,,,,[0.07611111111111112],[0.12611111111111112],[1],[0],[0],[2.051162099999999],['target'],4.0,2.0,14.0,1.0,38.837248699999975,,,,,,,,,,,38.73977489999999,38.837248699999975,0.0804049000000191,38.837248699999975,38.837248699999975,38.837248699999975,40.86384820000001,,,,,,,,40.864683000000014,40.8823688,40.8823688,41.87222759999997,,,,,12,1.0,2026-02-04_10h30.24.878,visual_search,,2024.1.5,,2026-02-04 10h30.50.313313 +0530,,,,,,,
,,,,,,,,,,,,12,Single,Lab,,,,,,,,,,,,,,,,,,,,,,,,,,,,,,,,,,,,,,,,,,,,,,,41.87232089999998,41.88532959999998,12,1.0,2026-02-04_10h30.24.878,visual_search,,2024.1.5,,2026-02-04 10h30.50.313313 +0530,,51.870819900000015,,,,,
,,,,,,,,,,,,13,Single,Lab,,,,,,,,,,,,,,,,,,0.008347699999831,0.015830499999538,0.0077565000001413,12.944875899999715,-0.0483333333333333,0.1811111111111111,1.0,0.0,0.0,,,,,,,,,,,,,,,,,,,,,,,13,1.0,2026-02-04_11h30.37.231,visual_search,,2024.1.5,,2026-02-04 11h33.00.989340 +0530,,,,,,,
,,,,,,,,,,,,13,Single,Lab,white,,,,[0.14166666666666666],[-0.03611111111111111],[1],[0],[0],[2.4630092999996123],['target'],0.0,0.0,0.0,0.0,13.111488099999406,,,,,,,,,,,12.994496100000106,13.111488099999406,0.1343513000001621,13.111488099999406,13.111488099999406,13.111488099999406,15.54339600000003,,,,,,,,15.54474289999962,15.569577299999764,15.569577299999764,16.54825139999957,,,,,13,1.0,2026-02-04_11h30.37.231,visual_search,,2024.1.5,,2026-02-04 11h33.00.989340 +0530,,,,,,,
,,,,,,,,,,,,13,Single,Lab,red,,,,[-0.04],[-0.23],[1],[0],[0],[1.5900179000000207],['target'],0.0,1.0,1.0,2.0,16.648116299999856,,,,,,,,,,,16.548785599999974,16.648116299999856,0.0777590999996391,16.648116299999856,16.648116299999856,16.648116299999856,18.21325759999945,,,,,,,,18.21407029999955,18.23266650000005,18.23266650000005,19.21936610000012,,,,,13,1.0,2026-02-04_11h30.37.231,visual_search,,2024.1.5,,2026-02-04 11h33.00.989340 +0530,,,,,,,
,,,,,,,,,,,,13,Single,Lab,white,,,,[-0.15555555555555556],[-0.021666666666666667],[1],[0],[0],[1.3087365000001228],['target'],0.0,2.0,2.0,1.0,19.31924889999937,,,,,,,,,,,19.219889499999223,19.31924889999937,0.0785663000006025,19.31924889999937,19.31924889999937,19.31924889999937,20.60197599999992,,,,,,,,20.60279679999985,20.622452099999464,20.622452099999464,21.60792499999934,,,,,13,1.0,2026-02-04_11h30.37.231,visual_search,,2024.1.5,,2026-02-04 11h33.00.989340 +0530,,,,,,,
,,,,,,,,,,,,13,Single,Lab,white,,,,[-0.0044444444444444444],[-0.11444444444444445],[1],[0],[0],[1.4417351000001872],['target'],1.0,0.0,3.0,1.0,21.712563499999305,,,,,,,,,,,21.60848209999949,21.712563499999305,0.0829321999999592,21.712563499999305,21.712563499999305,21.712563499999305,23.128288599999905,,,,,,,,23.129264899999725,23.147516899999573,23.147516899999573,24.135284599999977,,,,,13,1.0,2026-02-04_11h30.37.231,visual_search,,2024.1.5,,2026-02-04 11h33.00.989340 +0530,,,,,,,
,,,,,,,,,,,,13,Single,Lab,red,,,,[0.025],[0.17722222222222223],[1],[0],[0],[1.1991854999996576],['target'],1.0,1.0,4.0,2.0,24.241685099999813,,,,,,,,,,,24.135821699999724,24.241685099999813,0.0813228000006347,24.241685099999813,24.241685099999813,24.241685099999813,25.41044729999976,,,,,,,,25.41125920000013,25.43163039999945,25.43163039999945,26.418353000000025,,,,,13,1.0,2026-02-04_11h30.37.231,visual_search,,2024.1.5,,2026-02-04 11h33.00.989340 +0530,,,,,,,
,,,,,,,,,,,,13,Single,Lab,white,,,,[0.11222222222222222],[0.15944444444444444],[1],[0],[0],[1.1700227999999697],['target'],1.0,2.0,5.0,0.0,26.52273229999992,,,,,,,,,,,26.419006199999785,26.52273229999992,0.0826479999996081,26.52273229999992,26.52273229999992,26.52273229999992,27.6649067999997,,,,,,,,27.665756299999885,27.68389329999991,27.68389329999991,28.6679196999994,,,,,13,1.0,2026-02-04_11h30.37.231,visual_search,,2024.1.5,,2026-02-04 11h33.00.989340 +0530,,,,,,,
,,,,,,,,,,,,13,Single,Lab,white,,,,[0.12944444444444445],[0.115],[1],[0],[0],[0.9432764000002862],['target'],2.0,0.0,6.0,1.0,28.76997109999957,,,,,,,,,,,28.66845639999974,28.76997109999957,0.0775948999998945,28.76997109999957,28.76997109999957,28.76997109999957,29.687375699999397,,,,,,,,29.68817779999972,29.706260199999637,29.706260199999637,30.695502799999304,,,,,13,1.0,2026-02-04_11h30.37.231,visual_search,,2024.1.5,,2026-02-04 11h33.00.989340 +0530,,,,,,,
,,,,,,,,,,,,13,Single,Lab,red,,,,[-0.1411111111111111],[0.03388888888888889],[1],[0],[0],[1.0943475999993098],['target'],2.0,1.0,7.0,2.0,30.80087519999961,,,,,,,,,,,30.696304099999907,30.80087519999961,0.0825867999992624,30.80087519999961,30.80087519999961,30.80087519999961,31.865791299999728,,,,,,,,31.867226299999857,31.88547429999926,31.88547429999926,32.86743739999929,,,,,13,1.0,2026-02-04_11h30.37.231,visual_search,,2024.1.5,,2026-02-04 11h33.00.989340 +0530,,,,,,,
,,,,,,,,,,,,13,Single,Lab,white,,,,[0.1461111111111111],[-0.05611111111111111],[1],[0],[0],[1.8453191999997216],['target'],2.0,2.0,8.0,0.0,32.97046829999999,,,,,,,,,,,32.867970799999966,32.97046829999999,0.075171099999352,32.97046829999999,32.97046829999999,32.97046829999999,34.788495499999954,,,,,,,,34.78932589999931,34.811218499999995,34.811218499999995,35.794295599999714,,,,,13,1.0,2026-02-04_11h30.37.231,visual_search,,2024.1.5,,2026-02-04 11h33.00.989340 +0530,,,,,,,
,,,,,,,,,,,,13,Single,Lab,white,,,,[0.115],[0.11611111111111111],[1],[0],[0],[1.1835886999997456],['target'],3.0,0.0,9.0,0.0,35.90065069999946,,,,,,,,,,,35.794935999999325,35.90065069999946,0.0797400999999808,35.90065069999946,35.90065069999946,35.90065069999946,37.05343619999985,,,,,,,,37.0543545999999,37.07212299999992,37.07212299999992,38.05500049999955,,,,,13,1.0,2026-02-04_11h30.37.231,visual_search,,2024.1.5,,2026-02-04 11h33.00.989340 +0530,,,,,,,
,,,,,,,,,,,,13,Single,Lab,white,,,,[-0.035],[0.1288888888888889],[1],[0],[0],[1.4242543000000296],['target'],3.0,1.0,10.0,1.0,38.16083149999941,,,,,,,,,,,38.05563749999965,38.16083149999941,0.0752635999997437,38.16083149999941,38.16083149999941,38.16083149999941,39.55463400000008,,,,,,,,39.55547679999927,39.577822899999774,39.577822899999774,40.56004159999975,,,,,13,1.0,2026-02-04_11h30.37.231,visual_search,,2024.1.5,,2026-02-04 11h33.00.989340 +0530,,,,,,,
,,,,,,,,,,,,13,Single,Lab,red,,,,[-0.11388888888888889],[-0.042777777777777776],[1],[0],[0],[1.4133810000002995],['target'],3.0,2.0,11.0,2.0,40.66370339999958,,,,,,,,,,,40.56079619999946,40.66370339999958,0.0792738000000099,40.66370339999958,40.66370339999958,40.66370339999958,42.04891150000003,,,,,,,,42.04974519999996,42.07227919999968,42.07227919999968,43.05401729999994,,,,,13,1.0,2026-02-04_11h30.37.231,visual_search,,2024.1.5,,2026-02-04 11h33.00.989340 +0530,,,,,,,
,,,,,,,,,,,,13,Single,Lab,white,,,,[-0.19944444444444445],[-0.16444444444444445],[1],[0],[0],[1.3186023999996905],['target'],4.0,0.0,12.0,0.0,43.15749049999977,,,,,,,,,,,43.05448350000006,43.15749049999977,0.0793462999999974,43.15749049999977,43.15749049999977,43.15749049999977,44.44846779999989,,,,,,,,44.44928269999946,44.46946389999994,44.46946389999994,45.46006469999975,,,,,13,1.0,2026-02-04_11h30.37.231,visual_search,,2024.1.5,,2026-02-04 11h33.00.989340 +0530,,,,,,,
