target_col,trials.thisRepN,trials.thisTrialN,trials.thisN,trials.thisIndex,thisRow.t,notes,instructions.started,instrTxt.started,startMouse.started,instructions.stopped,startMouse.x,startMouse.y,startMouse.leftButton,startMouse.midButton,startMouse.rightButton,trial.started,square.started,mouse.started,trial_counter.started,instruct.started,trial.stopped,click_times,mouse.x,mouse.y,mouse.leftButton,mouse.midButton,mouse.rightButton,mouse.time,mouse.clicked_name,feedback.started,fb.started,trial_counter_2.started,feedback.stopped,fb.stopped,trial_counter_2.stopped,thanks.started,endMsg.started,participant,session,date,expName,psychopyVersion,frameRate,expStart,Unnamed: 45,source_file
,,,,,,,0.0074151000000028,0.0146431000000006,0.0073575000000118,6.833107600000005,0.0277777777777777,0.0283333333333333,1.0,0.0,0.0,,,,,,,,,,,,,,,,,,,,,,,sahithi,1.0,2026-02-06_13h34.07.839,visual_search,2024.1.5,,2026-02-06 13h34.27.092673 +0530,,22_visual_search_2026-02-06_13h34.07.839.csv
white,0.0,0.0,0.0,1.0,6.989809699999967,,,,,,,,,,,6.871451499999978,6.989809699999967,0.1257805000000189,6.989809699999967,6.989809699999967,14.632030600000007,"[1.5465690999999993, 2.826139000000012, 4.1908783000000085, 5.552188600000022, 7.796909599999992]","[0.05611111111111111, -0.18444444444444444, 0.235, 0.012222222222222223, -0.03833333333333333]","[0.10722222222222222, 0.0961111111111111, 0.14666666666666667, -0.11888888888888889, 0.11]","[1, 1, 1, 1, 1]","[0, 0, 0, 0, 0]","[0, 0, 0, 0, 0]","[1.4298587999999768, 2.7094582999999943, 4.07456609999997, 5.434906599999977, 7.679791499999965]","['target_0', 'target_4', 'target_1', 'target_3', 'target_2']",14.634938299999988,14.657117400000004,14.657117400000004,15.64179059999998,,,,,sahithi,1.0,2026-02-06_13h34.07.839,visual_search,2024.1.5,,2026-02-06 13h34.27.092673 +0530,,22_visual_search_2026-02-06_13h34.07.839.csv
white,0.0,1.0,1.0,0.0,15.735016299999984,,,,,,,,,,,15.642269,15.735016299999984,0.0724412999999799,15.735016299999984,15.735016299999984,22.05093089999997,"[1.950137199999972, 3.0177605000000085, 4.095488699999976, 5.427066699999955, 6.41418189999996]","[0.09388888888888888, -0.04, -0.13555555555555557, 0.12166666666666667, 0.20833333333333334]","[0.23166666666666666, 0.21833333333333332, 0.19944444444444445, -0.03888888888888889, -0.13722222222222222]","[1, 1, 1, 1, 1]","[0, 0, 0, 0, 0]","[0, 0, 0, 0, 0]","[1.8827552999999853, 2.9484497999999917, 4.026290099999983, 5.357497299999977, 6.344524199999967]","['target_3', 'target_0', 'target_4', 'target_1', 'target_2']",22.052226299999973,22.059902499999964,22.059902499999964,23.05740370000001,,,,,sahithi,1.0,2026-02-06_13h34.07.839,visual_search,2024.1.5,,2026-02-06 13h34.27.092673 +0530,,22_visual_search_2026-02-06_13h34.07.839.csv
red,0.0,2.0,2.0,2.0,23.156466499999965,,,,,,,,,,,23.057822499999983,23.156466499999965,0.0786927999999989,23.156466499999965,23.156466499999965,28.50831460000001,"[1.2920506000000387, 2.1474685000000022, 3.3042282000000114, 4.348476100000028, 5.454360699999995]","[-0.013333333333333334, 0.058333333333333334, 0.15833333333333333, 0.19111111111111112, -0.05444444444444444]","[-0.049444444444444444, -0.05444444444444444, 0.12333333333333334, 0.0044444444444444444, 0.043333333333333335]","[1, 1, 1, 1, 1]","[0, 0, 0, 0, 0]","[0, 0, 0, 0, 0]","[1.220338599999991, 2.075701899999956, 3.2321231999999895, 4.276182799999958, 5.382031299999994]","['target_2', 'target_1', 'target_0', 'target_3', 'target_4']",28.50919319999997,28.51697409999997,28.51697409999997,29.50700760000001,29.619514900000013,29.619514900000013,,,sahithi,1.0,2026-02-06_13h34.07.839,visual_search,2024.1.5,,2026-02-06 13h34.27.092673 +0530,,22_visual_search_2026-02-06_13h34.07.839.csv
white,1.0,0.0,3.0,1.0,29.619514900000013,,,,,,,,,,,29.507382699999997,29.619514900000013,0.0810027999999647,29.619514900000013,29.619514900000013,36.67269669999996,"[1.6645164999999906, 2.5924322999999845, 3.511213199999986, 4.80861509999994, 7.16142439999993]","[-0.042222222222222223, -0.15833333333333333, -0.18, 0.10444444444444445, 0.24833333333333332]","[0.18666666666666668, 0.06222222222222222, -0.06277777777777778, -0.06333333333333334, 0.04777777777777778]","[1, 1, 1, 1, 1]","[0, 0, 0, 0, 0]","[0, 0, 0, 0, 0]","[1.5908473000000072, 2.518739100000005, 3.437366300000008, 4.733872800000029, 7.087115100000062]","['target_3', 'target_1', 'target_0', 'target_2', 'target_4']",36.67355639999994,36.68444920000002,36.68444920000002,37.67267500000003,37.76490739999997,37.76490739999997,,,sahithi,1.0,2026-02-06_13h34.07.839,visual_search,2024.1.5,,2026-02-06 13h34.27.092673 +0530,,22_visual_search_2026-02-06_13h34.07.839.csv
red,1.0,1.0,4.0,2.0,37.76490739999997,,,,,,,,,,,37.67317779999996,37.76490739999997,0.0657097000000703,37.76490739999997,37.76490739999997,43.65790960000004,"[1.2492273000000296, 2.9247252000000117, 3.3176220000000285, 4.965852500000096, 5.982810900000004]","[-0.03944444444444444, 0.04, 0.17, 0.08888888888888889, -0.04]","[0.09444444444444444, 0.044444444444444446, -0.10388888888888889, -0.17555555555555555, -0.013888888888888888]","[1, 1, 1, 1, 1]","[0, 0, 0, 0, 0]","[0, 0, 0, 0, 0]","[1.1893042000000378, 2.8648609000000533, 3.822633900000028, 4.9057593, 5.921991800000001]","['target_0', 'target_4', 'target_3', 'target_1', 'target_2']",43.65856599999995,43.66646319999995,43.66646319999995,44.65481550000004,44.74546429999998,44.74546429999998,,,sahithi,1.0,2026-02-06_13h34.07.839,visual_search,2024.1.5,,2026-02-06 13h34.27.092673 +0530,,22_visual_search_2026-02-06_13h34.07.839.csv
white,1.0,2.0,5.0,0.0,44.74546429999998,,,,,,,,,,,44.65526969999996,44.74546429999998,0.0576954999999088,44.74546429999998,44.74546429999998,51.60124710000002,"[1.897990199999981, 3.0261213, 4.645560799999998, 5.912923399999954, 6.940587499999992]","[0.08666666666666667, -0.19944444444444445, -0.042222222222222223, 0.18555555555555556, 0.04722222222222222]","[0.23277777777777778, 0.19277777777777777, -0.19333333333333333, 0.11555555555555555, 0.15555555555555556]","[1, 1, 1, 1, 1]","[0, 0, 0, 0, 0]","[0, 0, 0, 0, 0]","[1.8440279999999802, 2.971290799999906, 4.590602499999932, 5.858222399999931, 6.885885699999903]","['target_3', 'target_2', 'target_0', 'target_1', 'target_4']",51.6018828,51.61031619999994,51.61031619999994,52.60316499999999,,,,,sahithi,1.0,2026-02-06_13h34.07.839,visual_search,2024.1.5,,2026-02-06 13h34.27.092673 +0530,,22_visual_search_2026-02-06_13h34.07.839.csv
white,2.0,0.0,6.0,1.0,52.70241609999994,,,,,,,,,,,52.60350340000002,52.70241609999994,0.069911100000013,52.70241609999994,52.70241609999994,58.62032299999999,"[1.528851300000042, 2.733741000000009, 3.8126804000000902, 5.002223300000082, 6.015850699999987]","[0.1361111111111111, -0.025555555555555557, -0.08277777777777778, -0.13833333333333334, -0.24055555555555555]","[0.09222222222222222, -0.23555555555555555, 0.06333333333333334, 0.17, 0.07277777777777777]","[1, 1, 1, 1, 1]","[0, 0, 0, 0, 0]","[0, 0, 0, 0, 0]","[1.4661793000000216, 2.670610600000032, 3.7493981000000076, 4.939259499999935, 5.952933199999961]","['target_0', 'target_2', 'target_3', 'target_4', 'target_1']",58.62133449999999,58.632050100000015,58.632050100000015,59.62158829999999,,,,,sahithi,1.0,2026-02-06_13h34.07.839,visual_search,2024.1.5,,2026-02-06 13h34.27.092673 +0530,,22_visual_search_2026-02-06_13h34.07.839.csv
white,2.0,1.0,7.0,0.0,59.73546969999995,,,,,,,,,,,59.62203790000001,59.73546969999995,0.0915407999999615,59.73546969999995,59.73546969999995,65.17529709999997,"[1.0970804999999473, 2.189383399999997, 3.2919570999999905, 4.415311799999927, 5.551610499999924]","[-0.14555555555555555, -0.1938888888888889, -0.08666666666666667, 0.14, 0.21]","[0.16666666666666666, -0.050555555555555555, -0.22166666666666668, 0.034444444444444444, 0.20722222222222222]","[1, 1, 1, 1, 1]","[0, 0, 0, 0, 0]","[0, 0, 0, 0, 0]","[1.012091899999973, 2.103585599999974, 3.206256899999971, 4.328765299999986, 5.465737699999977]","['target_2', 'target_3', 'target_4', 'target_1', 'target_0']",65.17637400000001,65.18662749999999,65.18662749999999,66.18457209999997,,,,,sahithi,1.0,2026-02-06_13h34.07.839,visual_search,2024.1.5,,2026-02-06 13h34.27.092673 +0530,,22_visual_search_2026-02-06_13h34.07.839.csv
red,2.0,2.0,8.0,2.0,66.26980379999998,,,,,,,,,,,66.18485329999999,66.26980379999998,0.065166999999974,66.26980379999998,66.26980379999998,72.3818738,"[1.1677598999999645, 2.0317450999999664, 2.970464799999945, 4.572147299999983, 6.20277509999994]","[0.052222222222222225, 0.17555555555555555, 0.24222222222222223, 0.2288888888888889, -0.21555555555555556]","[0.16666666666666666, 0.051111111111111114, -0.04833333333333333, -0.2222222222222222, -0.028333333333333332]","[1, 1, 1, 1, 1]","[0, 0, 0, 0, 0]","[0, 0, 0, 0, 0]","[1.1090060999999878, 1.973467600000049, 2.912321399999996, 4.513816499999962, 6.144727099999955]","['target_1', 'target_2', 'target_3', 'target_4', 'target_0']",72.38290989999996,72.39299110000002,72.39299110000002,73.38368030000004,,,,,sahithi,1.0,2026-02-06_13h34.07.839,visual_search,2024.1.5,,2026-02-06 13h34.27.092673 +0530,,22_visual_search_2026-02-06_13h34.07.839.csv
red,3.0,0.0,9.0,2.0,73.4928109,,,,,,,,,,,73.38416940000002,73.4928109,0.0814503999999942,73.4928109,73.4928109,78.61097889999996,"[1.124162100000035, 2.1324644000000035, 3.603045100000031, 3.9399190000000317, 5.225671000000034]","[-0.13666666666666666, -0.03944444444444444, 0.08666666666666667, -0.020555555555555556, -0.08388888888888889]","[0.18166666666666667, 0.245, -0.12277777777777778, -0.04055555555555555, -0.18666666666666668]","[1, 1, 1, 1, 1]","[0, 0, 0, 0, 0]","[0, 0, 0, 0, 0]","[1.0489409000000478, 2.472115600000052, 3.527739800000063, 4.2987435000000005, 5.1503254000000425]","['target_2', 'target_0', 'target_4', 'target_1', 'target_3']",78.61164250000002,78.6201423,78.6201423,79.61603530000002,,,,,sahithi,1.0,2026-02-06_13h34.07.839,visual_search,2024.1.5,,2026-02-06 13h34.27.092673 +0530,,22_visual_search_2026-02-06_13h34.07.839.csv
white,3.0,1.0,10.0,1.0,79.72157949999996,,,,,,,,,,,79.6165009,79.72157949999996,0.0809401000000207,79.72157949999996,79.72157949999996,84.53317000000004,"[1.1816107000000784, 1.492798700000094, 2.95004670000003, 3.965325900000039, 4.919798200000059]","[-0.06833333333333333, 0.052222222222222225, -0.04, 0.034444444444444444, 0.10055555555555555]","[0.08055555555555556, 0.12166666666666667, 0.21555555555555556, -0.027777777777777776, -0.1238888888888889]","[1, 1, 1, 1, 1]","[0, 0, 0, 0, 0]","[0, 0, 0, 0, 0]","[1.105545799999959, 1.9934891000000334, 2.873222499999997, 3.8885186999999632, 4.842562899999962]","['target_4', 'target_2', 'target_1', 'target_0', 'target_3']",84.53380949999996,84.54190559999995,84.54190559999995,85.53236100000004,85.64050739999993,85.64050739999993,,,sahithi,1.0,2026-02-06_13h34.07.839,visual_search,2024.1.5,,2026-02-06 13h34.27.092673 +0530,,22_visual_search_2026-02-06_13h34.07.839.csv
white,3.0,2.0,11.0,0.0,85.64050739999993,,,,,,,,,,,85.53285540000002,85.64050739999993,0.0787522999999055,85.64050739999993,85.64050739999993,90.9932053,"[1.3698900999999069, 2.0067878999999493, 2.698879099999999, 4.19428819999996, 5.457449199999928]","[-0.12555555555555556, -0.13555555555555557, 0.026111111111111113, -0.05611111111111111, 0.22]","[0.20944444444444443, 0.08388888888888889, 0.007222222222222222, -0.17166666666666666, -0.2727777777777778]","[1, 1, 1, 1, 1]","[0, 0, 0, 0, 0]","[0, 0, 0, 0, 0]","[1.2955091999999695, 2.2484750999999505, 3.2062192999999297, 4.119178099999999, 5.382314999999949]","['target_1', 'target_2', 'target_4', 'target_3', 'target_0']",90.99435170000004,91.00346030000004,91.00346030000004,91.99768599999992,,,,,sahithi,1.0,2026-02-06_13h34.07.839,visual_search,2024.1.5,,2026-02-06 13h34.27.092673 +0530,,22_visual_search_2026-02-06_13h34.07.839.csv
white,4.0,0.0,12.0,0.0,92.1084571,,,,,,,,,,,91.99808840000004,92.1084571,0.0859803999999258,92.1084571,92.1084571,97.5379107,"[1.7102760999999873, 2.298965399999929, 3.6117527999999766, 4.627092999999945, 5.54078770000001]","[-0.03611111111111111, 0.09388888888888888, 0.2222222222222222, 0.21611111111111111, -0.13777777777777778]","[0.15166666666666667, 0.17277777777777778, 0.02666666666666667, -0.17555555555555555, 0.019444444444444445]","[1, 1, 1, 1, 1]","[0, 0, 0, 0, 0]","[0, 0, 0, 0, 0]","[1.628288100000077, 2.5481693000000405, 3.5292996000000585, 4.544532100000083, 5.45878730000004]","['target_2', 'target_1', 'target_0', 'target_4', 'target_3']",97.53872190000004,97.55012350000004,97.55012350000004,98.54677659999992,,,,,sahithi,1.0,2026-02-06_13h34.07.839,visual_search,2024.1.5,,2026-02-06 13h34.27.092673 +0530,,22_visual_search_2026-02-06_13h34.07.839.csv
red,4.0,1.0,13.0,2.0,98.64720020000004,,,,,,,,,,,98.54707580000002,98.64720020000004,0.0740198000000873,98.64720020000004,98.64720020000004,102.95394729999998,"[1.106181300000003, 1.445875000000001, 2.477971700000012, 3.114157700000078, 4.413635200000044]","[-0.16277777777777777, 0.058333333333333334, 0.17944444444444443, 0.21944444444444444, -0.21666666666666667]","[0.20944444444444443, 0.17555555555555555, -0.012777777777777779, -0.10277777777777777, -0.06555555555555556]","[1, 1, 1, 1, 1]","[0, 0, 0, 0, 0]","[0, 0, 0, 0, 0]","[1.0366807000000335, 1.7790591000000404, 2.7752174999999397, 3.5044160999999576, 4.343582900000001]","['target_1', 'target_4', 'target_3', 'target_2', 'target_0']",102.9549925,102.96455319999995,102.96455319999995,103.96271809999996,,,,,sahithi,1.0,2026-02-06_13h34.07.839,visual_search,2024.1.5,,2026-02-06 13h34.27.092673 +0530,,22_visual_search_2026-02-06_13h34.07.839.csv
white,4.0,2.0,14.0,1.0,104.0551597,,,,,,,,,,,103.96318889999998,104.0551597,0.0788226999999324,104.0551597,104.0551597,110.21607919999995,"[1.174539799999934, 2.9518039999999246, 4.2996912999999495, 5.247823999999923, 6.259428099999923]","[-0.23444444444444446, 0.16666666666666666, 0.06777777777777778, 0.011111111111111112, -0.20944444444444443]","[0.22611111111111112, 0.16111111111111112, -0.12333333333333334, -0.18388888888888888, -0.059444444444444446]","[1, 1, 1, 1, 1]","[0, 0, 0, 0, 0]","[0, 0, 0, 0, 0]","[1.0996125000000347, 2.876263100000074, 4.224142900000061, 5.1723367000000735, 6.183710799999972]","['target_1', 'target_2', 'target_0', 'target_4', 'target_3']",110.2167872,110.22526900000004,110.22526900000004,111.2121985,111.23531219999995,111.23531219999995,,,sahithi,1.0,2026-02-06_13h34.07.839,visual_search,2024.1.5,,2026-02-06 13h34.27.092673 +0530,,22_visual_search_2026-02-06_13h34.07.839.csv
,,,,,,,,,,,,,,,,,,,,,,,,,,,,,,,,,,,,111.21226849999994,111.23531219999995,,,,,,,,,22_visual_search_2026-02-06_13h34.07.839.csv
,,,,,,,0.0082750000001396,0.0149741000000176,0.0077744999998685,15.91613180000013,-0.1105555555555555,0.1322222222222222,1.0,0.0,0.0,,,,,,,,,,,,,,,,,,,,,,,23.0,1.0,2026-02-06_13h54.30.043,visual_search,2024.1.5,,2026-02-06 13h54.43.310633 +0530,,23_visual_search_2026-02-06_13h54.30.043.csv
white,0.0,0.0,0.0,0.0,16.019408399999975,,,,,,,,,,,15.927142400000092,16.019408399999975,0.0774066999999831,16.019408399999975,16.019408399999975,22.627099100000123,"[1.8353147000000263, 2.9395113000000492, 4.380884599999945, 5.4346539999999095, 6.7091281999998955]","[-0.01, 0.0005555555555555556, -0.24333333333333335, -0.20722222222222222, 0.17722222222222223]","[0.15611111111111112, 0.07277777777777777, -0.10388888888888889, -0.18555555555555556, -0.07777777777777778]","[1, 1, 1, 1, 1]","[0, 0, 0, 0, 0]","[0, 0, 0, 0, 0]","[1.7644357000001492, 2.8686365000000933, 4.309991100000161, 5.363755700000183, 6.638215200000104]","['target_0', 'target_2', 'target_1', 'target_4', 'target_3']",22.62814389999994,22.64367500000003,22.64367500000003,23.630713300000025,,,,,23.0,1.0,2026-02-06_13h54.30.043,visual_search,2024.1.5,,2026-02-06 13h54.43.310633 +0530,,23_visual_search_2026-02-06_13h54.30.043.csv
red,0.0,1.0,1.0,2.0,23.725065600000107,,,,,,,,,,,23.63164499999993,23.725065600000107,0.0702765999999428,23.725065600000107,23.725065600000107,29.44005970000012,"[1.619805099999894, 2.629086799999868, 3.596192399999836, 3.9729555999999775, 5.810350399999834]","[-0.04888888888888889, 0.011666666666666667, 0.23777777777777778, 0.18611111111111112, -0.1288888888888889]","[0.1638888888888889, 0.09222222222222222, 0.11166666666666666, -0.2127777777777778, -0.16833333333333333]","[1, 1, 1, 1, 1]","[0, 0, 0, 0, 0]","[0, 0, 0, 0, 0]","[1.5522702999999183, 2.561397199999874, 3.5285105000000385, 4.540472299999919, 5.742651099999875]","['target_3', 'target_1', 'target_0', 'target_2', 'target_4']",29.44071299999996,29.44840369999997,29.44840369999997,30.44663349999996,,,,,23.0,1.0,2026-02-06_13h54.30.043,visual_search,2024.1.5,,2026-02-06 13h54.43.310633 +0530,,23_visual_search_2026-02-06_13h54.30.043.csv
white,0.0,2.0,2.0,1.0,30.541697399999972,,,,,,,,,,,30.44751169999995,30.541697399999972,0.0766889000001356,30.541697399999972,30.541697399999972,36.14210350000008,"[1.465316199999961, 2.259349400000019, 2.878866300000027, 4.563950599999998, 5.699783900000057]","[-0.14722222222222223, -0.08666666666666667, -0.09388888888888888, 0.09, -0.02388888888888889]","[0.13166666666666665, 0.2388888888888889, -0.05722222222222222, -0.15722222222222224, 0.07944444444444444]","[1, 1, 1, 1, 1]","[0, 0, 0, 0, 0]","[0, 0, 0, 0, 0]","[1.3941749999999047, 2.188325999999961, 3.166958799999975, 4.492354900000009, 5.6282911000000695]","['target_4', 'target_2', 'target_0', 'target_1', 'target_3']",36.14277470000002,36.15080200000011,36.15080200000011,37.14604680000002,,,,,23.0,1.0,2026-02-06_13h54.30.043,visual_search,2024.1.5,,2026-02-06 13h54.43.310633 +0530,,23_visual_search_2026-02-06_13h54.30.043.csv
white,1.0,0.0,3.0,0.0,37.2440696000001,,,,,,,,,,,37.14697980000005,37.2440696000001,0.0791842999999516,37.2440696000001,37.2440696000001,44.82021570000006,"[2.470316700000012, 3.852831599999945, 5.02426360000004, 6.1684024999999565, 7.675875099999985]","[0.12833333333333333, -0.17888888888888888, 0.005555555555555556, 0.17055555555555554, 0.17333333333333334]","[0.23444444444444446, 0.24666666666666667, 0.07833333333333334, 0.02666666666666667, -0.24166666666666667]","[1, 1, 1, 1, 1]","[0, 0, 0, 0, 0]","[0, 0, 0, 0, 0]","[2.3965118000000984, 3.778486100000009, 4.949856700000055, 6.0940458000000035, 7.601489599999923]","['target_2', 'target_1', 'target_0', 'target_4', 'target_3']",44.82091260000016,44.82889030000001,44.82889030000001,45.82789690000004,,,,,23.0,1.0,2026-02-06_13h54.30.043,visual_search,2024.1.5,,2026-02-06 13h54.43.310633 +0530,,23_visual_search_2026-02-06_13h54.30.043.csv
white,1.0,1.0,4.0,1.0,45.91893890000006,,,,,,,,,,,45.829030800000055,45.91893890000006,0.0757622999999512,45.91893890000006,45.91893890000006,52.43792039999994,"[2.034795000000031, 3.0365948999999546, 3.549310699999978, 5.392463200000066, 6.615505700000085]","[-0.0044444444444444444, -0.10055555555555555, -0.22777777777777777, -0.03, -0.10722222222222222]","[-0.22166666666666668, -0.08055555555555556, -0.19611111111111112, 0.05333333333333334, 0.24888888888888888]","[1, 1, 1, 1, 1]","[0, 0, 0, 0, 0]","[0, 0, 0, 0, 0]","[1.9639294999999493, 2.965570699999944, 3.9379544999999325, 5.321480399999928, 6.544417100000146]","['target_4', 'target_1', 'target_2', 'target_3', 'target_0']",52.43857060000005,52.4468617,52.4468617,53.44301680000012,,,,,23.0,1.0,2026-02-06_13h54.30.043,visual_search,2024.1.5,,2026-02-06 13h54.43.310633 +0530,,23_visual_search_2026-02-06_13h54.30.043.csv
red,1.0,2.0,5.0,2.0,53.53753060000008,,,,,,,,,,,53.44376280000006,53.53753060000008,0.0769582999998874,53.53753060000008,53.53753060000008,58.96110139999996,"[1.4080104999998184, 2.460769199999959, 3.522510599999805, 4.607708000000002, 5.5210557999998855]","[-0.07722222222222222, -0.12166666666666667, -0.02, 0.14833333333333334]","[0.2238888888888889, 0.14444444444444443, 0.03333333333333333, -0.04888888888888889]","[1, 1, 1, 1]","[0, 0, 0, 0]","[0, 0, 0, 0]","[1.3340725000000475, 2.387456200000088, 3.448075000000017, 4.533287500000142]","['target_2', 'target_3', 'target_4', 'target_1']",58.9617353000001,58.97074180000004,58.97074180000004,59.96015190000003,60.05068129999995,60.05068129999995,,,23.0,1.0,2026-02-06_13h54.30.043,visual_search,2024.1.5,,2026-02-06 13h54.43.310633 +0530,,23_visual_search_2026-02-06_13h54.30.043.csv
white,2.0,0.0,6.0,1.0,60.05068129999995,,,,,,,,,,,59.96088039999995,60.05068129999995,0.0666143999999349,60.05068129999995,60.05068129999995,65.34036990000004,"[1.4277466999999433, 2.4997326000000157, 3.3920872000001054, 4.792333300000109, 5.377117700000099]","[-0.18722222222222223, -0.07055555555555555, -0.10222222222222223, 0.1361111111111111]","[0.22277777777777777, 0.1238888888888889, 0.03111111111111111, 0.06277777777777778]","[1, 1, 1, 1]","[0, 0, 0, 0]","[0, 0, 0, 0]","[1.3665992999999617, 2.4200994000000264, 3.330427699999973, 4.7307907000001705]","['target_3', 'target_0', 'target_1', 'target_2']",65.34107480000011,65.35007560000008,65.35007560000008,66.34197050000012,,,,,23.0,1.0,2026-02-06_13h54.30.043,visual_search,2024.1.5,,2026-02-06 13h54.43.310633 +0530,,23_visual_search_2026-02-06_13h54.30.043.csv
white,2.0,1.0,7.0,0.0,66.43357390000006,,,,,,,,,,,66.34283570000002,66.43357390000006,0.0702601999998933,66.43357390000006,66.43357390000006,72.10115210000004,"[1.5620314000000235, 2.037624199999982, 3.666785599999912, 4.8230206999999155, 5.758426599999893]","[0.12111111111111111, -0.051111111111111114, -0.052222222222222225, 0.11277777777777778, 0.245]","[0.15333333333333332, 0.07, -0.005, -0.22166666666666668, -0.11833333333333333]","[1, 1, 1, 1, 1]","[0, 0, 0, 0, 0]","[0, 0, 0, 0, 0]","[1.4971188000001803, 2.367848200000026, 3.602103100000022, 4.757553900000175, 5.693085699999983]","['target_3', 'target_4', 'target_2', 'target_0', 'target_1']",72.10180059999993,72.10962310000014,72.10962310000014,73.10764459999996,,,,,23.0,1.0,2026-02-06_13h54.30.043,visual_search,2024.1.5,,2026-02-06 13h54.43.310633 +0530,,23_visual_search_2026-02-06_13h54.30.043.csv
red,2.0,2.0,8.0,2.0,73.20204330000001,,,,,,,,,,,73.10864050000009,73.20204330000001,0.0766097999999146,73.20204330000001,73.20204330000001,78.65991000000008,"[1.4569091999999273, 2.0447963999999956, 3.4536083999998937, 4.052334599999995, 5.556432399999949]","[0.1527777777777778, 0.095, 0.06166666666666667, 0.13, -0.21666666666666667]","[0.2427777777777778, 0.03166666666666667, -0.06777777777777778, -0.145, -0.011111111111111112]","[1, 1, 1, 1, 1]","[0, 0, 0, 0, 0]","[0, 0, 0, 0, 0]","[1.3855105000000094, 2.430437100000063, 3.3825570999999854, 4.271835600000031, 5.484722599999941]","['target_1', 'target_4', 'target_2', 'target_0', 'target_3']",78.66056270000013,78.66841640000007,78.66841640000007,79.65817620000007,79.75107819999994,79.75107819999994,,,23.0,1.0,2026-02-06_13h54.30.043,visual_search,2024.1.5,,2026-02-06 13h54.43.310633 +0530,,23_visual_search_2026-02-06_13h54.30.043.csv
white,3.0,0.0,9.0,0.0,79.75107819999994,,,,,,,,,,,79.65907300000003,79.75107819999994,0.0683740999998008,79.75107819999994,79.75107819999994,86.13478480000003,"[1.748050499999863, 2.032776399999875, 3.7330370999998195, 4.888689999999997, 6.472588199999791]","[-0.23944444444444443, -0.21777777777777776, 0.13, 0.04777777777777778, 0.21611111111111111]","[0.04777777777777778, 0.14333333333333334, 0.24833333333333332, -0.010555555555555556, -0.165]","[1, 1, 1, 1, 1]","[0, 0, 0, 0, 0]","[0, 0, 0, 0, 0]","[1.6852555999998913, 2.45864830000005, 3.669530200000054, 4.825709199999892, 6.4091289000000415]","['target_2', 'target_0', 'target_3', 'target_1', 'target_4']",86.1354381000001,86.14325819999999,86.14325819999999,87.13965789999997,,,,,23.0,1.0,2026-02-06_13h54.30.043,visual_search,2024.1.5,,2026-02-06 13h54.43.310633 +0530,,23_visual_search_2026-02-06_13h54.30.043.csv
red,3.0,1.0,10.0,2.0,87.2253541,,,,,,,,,,,87.14037140000005,87.2253541,0.0670018999999229,87.2253541,87.2253541,91.88296630000012,"[1.0815482999998949, 1.9450860999997985, 2.8097316999999293, 3.6928806999999324, 4.746007899999995]","[-0.125, -0.03833333333333333, 0.14944444444444444, 0.20222222222222222, -0.16777777777777778]","[0.1738888888888889, -0.023333333333333334, -0.056666666666666664, -0.21222222222222223, -0.05444444444444444]","[1, 1, 1, 1, 1]","[0, 0, 0, 0, 0]","[0, 0, 0, 0, 0]","[1.0178346000000147, 1.8811691999999312, 2.7455598999999893, 3.628850199999988, 4.681827399999975]","['target_1', 'target_3', 'target_4', 'target_2', 'target_0']",91.88371610000011,91.89131539999994,91.89131539999994,92.8876745,,,,,23.0,1.0,2026-02-06_13h54.30.043,visual_search,2024.1.5,,2026-02-06 13h54.43.310633 +0530,,23_visual_search_2026-02-06_13h54.30.043.csv
white,3.0,2.0,11.0,1.0,92.97461880000014,,,,,,,,,,,92.88856090000012,92.97461880000014,0.068863500000134,92.97461880000014,92.97461880000014,98.90717910000012,"[1.534109300000182, 2.4879960000000665, 3.3859515000001466, 4.304937900000141, 6.0216983000000255]","[-0.08777777777777777, 0.12666666666666668, 0.012777777777777779, 0.11722222222222223, -0.11055555555555556]","[0.16444444444444445, 0.16833333333333333, 0.025, -0.012777777777777779, -0.18833333333333332]","[1, 1, 1, 1, 1]","[0, 0, 0, 0, 0]","[0, 0, 0, 0, 0]","[1.4687916000000314, 2.422149700000091, 3.319770400000152, 4.238898900000095, 5.955768700000135]","['target_4', 'target_1', 'target_0', 'target_2', 'target_3']",98.9078833000001,98.91546340000014,98.91546340000014,99.9036688000001,99.989104,99.989104,,,23.0,1.0,2026-02-06_13h54.30.043,visual_search,2024.1.5,,2026-02-06 13h54.43.310633 +0530,,23_visual_search_2026-02-06_13h54.30.043.csv
white,4.0,0.0,12.0,1.0,99.989104,,,,,,,,,,,99.90412360000003,99.989104,0.0597222999999758,99.989104,99.989104,107.66710869999996,"[1.309170199999926, 2.4362524999999096, 3.389731299999994, 4.361530799999855, 7.757558499999959]","[-0.24555555555555555, 0.11944444444444445, 0.10222222222222223, -0.07111111111111111, 0.225]","[0.2038888888888889, 0.20777777777777778, -0.006111111111111111, -0.16777777777777778, 0.015]","[1, 1, 1, 1, 1]","[0, 0, 0, 0, 0]","[0, 0, 0, 0, 0]","[1.253506600000037, 2.3795789999999215, 3.3332212000000254, 4.304966799999875, 7.700828000000001]","['target_2', 'target_1', 'target_4', 'target_0', 'target_3']",107.66779280000014,107.67619809999997,107.67619809999997,108.66821000000004,,,,,23.0,1.0,2026-02-06_13h54.30.043,visual_search,2024.1.5,,2026-02-06 13h54.43.310633 +0530,,23_visual_search_2026-02-06_13h54.30.043.csv
white,4.0,1.0,13.0,0.0,108.76033890000008,,,,,,,,,,,108.66858660000004,108.76033890000008,0.0701273999998193,108.76033890000008,108.76033890000008,114.44755540000006,"[1.3297333999998955, 1.898089599999821, 2.9489200999998957, 4.775829899999962, 5.778253799999902]","[-0.13944444444444445, 0.034444444444444444, -0.11722222222222223, -0.07, 0.09555555555555556]","[0.2127777777777778, 0.2127777777777778, -0.07166666666666667, -0.1938888888888889, -0.03166666666666667]","[1, 1, 1, 1, 1]","[0, 0, 0, 0, 0]","[0, 0, 0, 0, 0]","[1.262940499999786, 2.454896399999825, 3.6912100999998074, 4.70858219999991, 5.710967399999845]","['target_1', 'target_3', 'target_2', 'target_0', 'target_4']",114.44818680000004,114.45606650000012,114.45606650000012,115.45085540000014,,,,,23.0,1.0,2026-02-06_13h54.30.043,visual_search,2024.1.5,,2026-02-06 13h54.43.310633 +0530,,23_visual_search_2026-02-06_13h54.30.043.csv
red,4.0,2.0,14.0,2.0,115.53437680000002,,,,,,,,,,,115.45132030000012,115.53437680000002,0.0633965000001808,115.53437680000002,115.53437680000002,120.9488761,"[1.196516900000006, 3.1761046999999962, 3.6281265000000076, 5.043332299999975, 5.4991873999999825]","[-0.10166666666666667, 0.012222222222222223, 0.11555555555555555, 0.010555555555555556]","[0.20333333333333334, 0.25333333333333335, 0.005555555555555556, -0.08888888888888889]","[1, 1, 1, 1]","[0, 0, 0, 0]","[0, 0, 0, 0]","[1.1367652000001272, 3.1164311, 4.101486000000023, 4.983278500000097]","['target_4', 'target_0', 'target_3', 'target_2']",120.9495703,120.95837890000008,120.95837890000008,121.95027470000014,,,,,23.0,1.0,2026-02-06_13h54.30.043,visual_search,2024.1.5,,2026-02-06 13h54.43.310633 +0530,,23_visual_search_2026-02-06_13h54.30.043.csv
,,,,,,,,,,,,,,,,,,,,,,,,,,,,,,,,,,,,121.95045759999994,121.9724566,,,,,,,,,23_visual_search_2026-02-06_13h54.30.043.csv
,,,,,,,0.0075007000000368,0.013635000000022,0.0072801999999683,27.2816378,0.0205555555555555,0.0,1.0,0.0,0.0,,,,,,,,,,,,,,,,,,,,,,,24.0,1.0,2026-02-06_13h51.11.393,visual_search,2024.1.5,,2026-02-06 13h51.34.397306 +0530,,24_visual_search_2026-02-06_13h51.11.393.csv
white,0.0,0.0,0.0,0.0,27.42047300000013,,,,,,,,,,,27.330894700000044,27.42047300000013,0.113820399999895,27.42047300000013,27.42047300000013,33.863196200000175,"[2.361696400000028, 3.7265248999999585, 4.688534200000049, 5.621985999999879, 6.579502199999979]","[0.2038888888888889, 0.2, 0.06388888888888888, -0.02, -0.08277777777777778]","[0.11277777777777778, -0.13444444444444445, -0.17888888888888888, -0.2361111111111111, -0.18222222222222223]","[1, 1, 1, 1, 1]","[0, 0, 0, 0, 0]","[0, 0, 0, 0, 0]","[2.2544001999999637, 3.619415500000059, 4.58115040000007, 5.514817600000015, 6.472131799999943]","['target_1', 'target_0', 'target_4', 'target_2', 'target_3']",33.86426419999998,33.88209790000019,33.88209790000019,34.87876670000014,,,,,24.0,1.0,2026-02-06_13h51.11.393,visual_search,2024.1.5,,2026-02-06 13h51.34.397306 +0530,,24_visual_search_2026-02-06_13h51.11.393.csv
white,0.0,1.0,1.0,1.0,34.96676060000004,,,,,,,,,,,34.879850700000134,34.96676060000004,0.080722200000082,34.96676060000004,34.96676060000004,42.47046300000011,"[2.7523853000000145, 4.168984200000068, 5.450659099999939, 6.475734399999965, 7.604962599999908]","[-0.1288888888888889, 0.05444444444444444, -0.1461111111111111, -0.04777777777777778, 0.17666666666666667]","[0.055, -0.023333333333333334, -0.14166666666666666, -0.19166666666666668, -0.16944444444444445]","[1, 1, 1, 1, 1]","[0, 0, 0, 0, 0]","[0, 0, 0, 0, 0]","[2.674681899999996, 4.091142700000091, 5.372681499999999, 6.397709099999929, 7.509277999999995]","['target_4', 'target_3', 'target_1', 'target_2', 'target_0']",42.471111000000064,42.4785565000002,42.4785565000002,43.47765190000018,,,,,24.0,1.0,2026-02-06_13h51.11.393,visual_search,2024.1.5,,2026-02-06 13h51.34.397306 +0530,,24_visual_search_2026-02-06_13h51.11.393.csv
red,0.0,2.0,2.0,2.0,43.56697870000016,,,,,,,,,,,43.47848080000017,43.56697870000016,0.0734355999998115,43.56697870000016,43.56697870000016,51.871454000000085,"[3.6791728999999123, 4.819355599999881, 5.870978400000013, 7.002523599999904, 8.398416899999802]","[-0.007222222222222222, 0.09888888888888889, 0.23777777777777778, 0.24888888888888888, -0.04777777777777778]","[0.07722222222222222, 0.08333333333333333, 0.07666666666666666, -0.10444444444444445, -0.14944444444444444]","[1, 1, 1, 1, 1]","[0, 0, 0, 0, 0]","[0, 0, 0, 0, 0]","[3.6118102999998882, 4.750930599999947, 5.802441199999976, 6.934386499999846, 8.330133399999795]","['target_1', 'target_0', 'target_4', 'target_3', 'target_2']",51.87214990000007,51.88008120000018,51.88008120000018,52.87580470000012,,,,,24.0,1.0,2026-02-06_13h51.11.393,visual_search,2024.1.5,,2026-02-06 13h51.34.397306 +0530,,24_visual_search_2026-02-06_13h51.11.393.csv
white,1.0,0.0,3.0,0.0,52.96806630000015,,,,,,,,,,,52.87653450000016,52.96806630000015,0.0727116999998997,52.96806630000015,52.96806630000015,61.45454340000015,"[1.5927373999998053, 3.3346934999999576, 6.436711399999922, 7.45712659999981, 8.580403999999817]","[-0.21166666666666667, 0.0011111111111111111, -0.0077777777777777776, 0.021666666666666667, 0.12777777777777777]","[0.17, -0.17222222222222222, 0.07833333333333334, 0.19333333333333333, 0.09666666666666666]","[1, 1, 1, 1, 1]","[0, 0, 0, 0, 0]","[0, 0, 0, 0, 0]","[1.5253043000000162, 3.267074399999956, 6.368831199999931, 7.389565700000048, 8.512989699999935]","['target_3', 'target_2', 'target_1', 'target_0', 'target_4']",61.4552056,61.46352980000006,61.46352980000006,62.4582597000001,,,,,24.0,1.0,2026-02-06_13h51.11.393,visual_search,2024.1.5,,2026-02-06 13h51.34.397306 +0530,,24_visual_search_2026-02-06_13h51.11.393.csv
red,1.0,1.0,4.0,2.0,62.5482912,,,,,,,,,,,62.45920150000006,62.5482912,0.0713465999999698,62.5482912,62.5482912,69.22883710000019,"[1.9018306999998913, 3.1488804999999047, 4.336727800000062, 5.492643000000044, 6.772077999999965]","[0.12611111111111112, 0.06111111111111111, 0.1922222222222222, 0.0005555555555555556, -0.20666666666666667]","[0.07611111111111112, -0.05277777777777778, -0.19055555555555556, -0.18722222222222223, -0.11222222222222222]","[1, 1, 1, 1, 1]","[0, 0, 0, 0, 0]","[0, 0, 0, 0, 0]","[1.8354177999999592, 3.082299400000011, 4.270083000000113, 5.425940999999966, 6.705309599999964]","['target_1', 'target_4', 'target_3', 'target_2', 'target_0']",69.22948350000001,69.23737340000002,69.23737340000002,70.22449600000004,70.31118890000016,70.31118890000016,,,24.0,1.0,2026-02-06_13h51.11.393,visual_search,2024.1.5,,2026-02-06 13h51.34.397306 +0530,,24_visual_search_2026-02-06_13h51.11.393.csv
white,1.0,2.0,5.0,1.0,70.31118890000016,,,,,,,,,,,70.22530460000007,70.31118890000016,0.0582213000000138,70.31118890000016,70.31118890000016,77.87975520000009,"[1.658288999999968, 3.1663931000000503, 5.131660499999953, 6.614413000000013, 7.6487913000000844]","[-0.23722222222222222, 0.09833333333333333, -0.18888888888888888, -0.017222222222222222, 0.17833333333333334]","[0.10388888888888889, 0.18722222222222223, -0.2061111111111111, -0.1, -0.2338888888888889]","[1, 1, 1, 1, 1]","[0, 0, 0, 0, 0]","[0, 0, 0, 0, 0]","[1.603103999999803, 3.1110678000000007, 5.076003199999832, 6.558834100000013, 7.593107999999802]","['target_2', 'target_1', 'target_4', 'target_3', 'target_0']",77.88039000000003,77.88780500000007,77.88780500000007,78.87301060000004,78.97133700000018,78.97133700000018,,,24.0,1.0,2026-02-06_13h51.11.393,visual_search,2024.1.5,,2026-02-06 13h51.34.397306 +0530,,24_visual_search_2026-02-06_13h51.11.393.csv
white,2.0,0.0,6.0,1.0,78.97133700000018,,,,,,,,,,,78.87364739999998,78.97133700000018,0.0659637999999631,78.97133700000018,78.97133700000018,86.30881620000014,"[1.7591046999998525, 2.8440266000000065, 3.1431848999998238, 4.922065900000007, 7.426842500000021]","[-0.07777777777777778, 0.06277777777777778, 0.13722222222222222, 0.23833333333333334, 0.03]","[0.14, 0.055, 0.11666666666666667, 0.12333333333333334, -0.15611111111111112]","[1, 1, 1, 1, 1]","[0, 0, 0, 0, 0]","[0, 0, 0, 0, 0]","[1.698434799999859, 2.7830916999998863, 3.7761392999998407, 4.861293700000033, 7.365704099999903]","['target_2', 'target_3', 'target_4', 'target_1', 'target_0']",86.30948390000003,86.31776439999999,86.31776439999999,87.30499480000003,87.41869070000007,87.41869070000007,,,24.0,1.0,2026-02-06_13h51.11.393,visual_search,2024.1.5,,2026-02-06 13h51.34.397306 +0530,,24_visual_search_2026-02-06_13h51.11.393.csv
white,2.0,1.0,7.0,0.0,87.41869070000007,,,,,,,,,,,87.30554150000012,87.41869070000007,0.0757410999999592,87.41869070000007,87.41869070000007,93.44829170000004,"[1.6630296000000726, 2.750926599999957, 3.170058299999937, 5.05527219999999, 6.137106299999914]","[-0.1272222222222222, -0.08444444444444445, -0.18, 0.245, 0.13777777777777778]","[0.08611111111111111, -0.08944444444444444, -0.20666666666666667, -0.011666666666666667, 0.12111111111111111]","[1, 1, 1, 1, 1]","[0, 0, 0, 0, 0]","[0, 0, 0, 0, 0]","[1.594919000000118, 2.683494699999983, 3.6131592000001547, 4.986642400000164, 6.068682400000171]","['target_4', 'target_1', 'target_2', 'target_3', 'target_0']",93.4489434000002,93.456997,93.456997,94.45421780000017,,,,,24.0,1.0,2026-02-06_13h51.11.393,visual_search,2024.1.5,,2026-02-06 13h51.34.397306 +0530,,24_visual_search_2026-02-06_13h51.11.393.csv
red,2.0,2.0,8.0,2.0,94.56020000000012,,,,,,,,,,,94.4550709,94.56020000000012,0.0845807000000604,94.56020000000012,94.56020000000012,99.7034076,"[1.1252234000000954, 2.1944299000001593, 3.2299729000001207, 4.312819700000091, 5.252807700000176]","[-0.10111111111111111, -0.04111111111111111, -0.010555555555555556, 0.08777777777777777, 0.14888888888888888]","[0.05333333333333334, -0.016666666666666666, 0.18, 0.10777777777777778, 0.23555555555555555]","[1, 1, 1, 1, 1]","[0, 0, 0, 0, 0]","[0, 0, 0, 0, 0]","[1.0461285999999745, 2.115104499999916, 3.1503989999998794, 4.233228899999858, 5.173248199999989]","['target_1', 'target_3', 'target_2', 'target_4', 'target_0']",99.70406650000018,99.71199120000006,99.71199120000006,100.70443610000008,100.80074780000018,100.80074780000018,,,24.0,1.0,2026-02-06_13h51.11.393,visual_search,2024.1.5,,2026-02-06 13h51.34.397306 +0530,,24_visual_search_2026-02-06_13h51.11.393.csv
white,3.0,0.0,9.0,0.0,100.80074780000018,,,,,,,,,,,100.70526900000004,100.80074780000018,0.0688094999998156,100.80074780000018,100.80074780000018,106.86120570000004,"[1.7487284999999702, 3.0017123999998603, 3.9912501999999677, 4.988523199999918, 6.155672099999947]","[0.11833333333333333, 0.20722222222222222, 0.03611111111111111, -0.1761111111111111, -0.13833333333333334]","[0.22111111111111112, -0.015, -0.22944444444444445, -0.21055555555555555, -0.105]","[1, 1, 1, 1, 1]","[0, 0, 0, 0, 0]","[0, 0, 0, 0, 0]","[1.685023499999943, 2.9377144000000044, 3.9270910999998705, 4.924364400000059, 6.091482499999984]","['target_0', 'target_3', 'target_4', 'target_2', 'target_1']",106.86185820000014,106.86982090000016,106.86982090000016,107.86861940000016,,,,,24.0,1.0,2026-02-06_13h51.11.393,visual_search,2024.1.5,,2026-02-06 13h51.34.397306 +0530,,24_visual_search_2026-02-06_13h51.11.393.csv
white,3.0,1.0,10.0,1.0,107.97648370000002,,,,,,,,,,,107.86947290000012,107.97648370000002,0.0732527999998637,107.97648370000002,107.97648370000002,117.71991380000009,"[3.7880104999999276, 5.729839899999888, 6.728748699999869, 7.965124699999933, 9.856502799999816]","[-0.18777777777777777, -0.009444444444444445, 0.07277777777777777, -0.08388888888888889, 0.10833333333333334]","[0.155, 0.10444444444444445, 0.14, 0.008888888888888889, 0.06444444444444444]","[1, 1, 1, 1, 1]","[0, 0, 0, 0, 0]","[0, 0, 0, 0, 0]","[3.717904899999894, 5.660146700000041, 6.658152900000005, 7.895654100000002, 9.785969699999896]","['target_2', 'target_3', 'target_0', 'target_4', 'target_1']",117.72060440000018,117.7295749,117.7295749,118.71833850000009,118.8286346,118.8286346,,,24.0,1.0,2026-02-06_13h51.11.393,visual_search,2024.1.5,,2026-02-06 13h51.34.397306 +0530,,24_visual_search_2026-02-06_13h51.11.393.csv
red,3.0,2.0,11.0,2.0,118.8286346,,,,,,,,,,,118.71943280000004,118.8286346,0.0763544999999794,118.8286346,118.8286346,124.50398040000005,"[1.156177200000002, 2.2120056999999633, 3.150294600000052, 4.174461199999996, 5.781892799999923]","[-0.20833333333333334, -0.1622222222222222, -0.03111111111111111, 0.04611111111111111, 0.23]","[0.21222222222222223, 0.09055555555555556, 0.21611111111111111, -0.10777777777777778, -0.2311111111111111]","[1, 1, 1, 1, 1]","[0, 0, 0, 0, 0]","[0, 0, 0, 0, 0]","[1.0841472000001886, 2.1399770000000444, 3.078369400000156, 4.102201600000171, 5.709491600000092]","['target_2', 'target_1', 'target_3', 'target_4', 'target_0']",124.50466410000011,124.51747790000012,124.51747790000012,125.5158761,,,,,24.0,1.0,2026-02-06_13h51.11.393,visual_search,2024.1.5,,2026-02-06 13h51.34.397306 +0530,,24_visual_search_2026-02-06_13h51.11.393.csv
red,4.0,0.0,12.0,2.0,125.6204636,,,,,,,,,,,125.51667140000018,125.6204636,0.081880799999908,125.6204636,125.6204636,132.9709283000002,"[2.7741349999998874, 3.989819599999919, 4.918023299999959, 6.049812199999906, 7.464708499999915]","[-0.2411111111111111, -0.14944444444444444, -0.09555555555555556, 0.1361111111111111, 0.23333333333333334]","[0.25277777777777777, -0.06277777777777778, -0.1438888888888889, -0.18055555555555555, 0.22944444444444445]","[1, 1, 1, 1, 1]","[0, 0, 0, 0, 0]","[0, 0, 0, 0, 0]","[2.6964792000001125, 3.9118837000000894, 4.839887399999952, 5.971613800000114, 7.386565499999961]","['target_1', 'target_3', 'target_2', 'target_0', 'target_4']",132.9716420000002,132.9804908000001,132.9804908000001,133.96627880000003,134.0721543000002,134.0721543000002,,,24.0,1.0,2026-02-06_13h51.11.393,visual_search,2024.1.5,,2026-02-06 13h51.34.397306 +0530,,24_visual_search_2026-02-06_13h51.11.393.csv
white,4.0,1.0,13.0,0.0,134.0721543000002,,,,,,,,,,,133.9670778000002,134.0721543000002,0.0636317000000872,134.0721543000002,134.0721543000002,142.82900600000016,"[1.4440394000000651, 2.8665404000000763, 5.165473100000099, 6.265912500000013, 8.855809500000078]","[-0.09333333333333334, 0.20444444444444446, 0.015555555555555555, 0.04777777777777778, 0.22277777777777777]","[0.24888888888888888, 0.23555555555555555, 0.04666666666666667, -0.09777777777777778, 0.03166666666666667]","[1, 1, 1, 1, 1]","[0, 0, 0, 0, 0]","[0, 0, 0, 0, 0]","[1.3852604999999585, 2.807204400000046, 5.105585499999961, 6.206109900000001, 8.795976999999993]","['target_2', 'target_1', 'target_4', 'target_0', 'target_3']",142.82968470000014,142.83805800000005,142.83805800000005,143.8298235000002,,,,,24.0,1.0,2026-02-06_13h51.11.393,visual_search,2024.1.5,,2026-02-06 13h51.34.397306 +0530,,24_visual_search_2026-02-06_13h51.11.393.csv
white,4.0,2.0,14.0,1.0,143.93339140000012,,,,,,,,,,,143.83038370000008,143.93339140000012,0.0677699000000302,143.93339140000012,143.93339140000012,149.62606610000012,"[1.6091377000000193, 2.696116399999937, 3.654004399999849, 4.6570378999999775, 5.794762999999875]","[-0.03722222222222222, 0.215, 0.12666666666666668, 0.135, -0.19]","[0.15944444444444444, 0.16111111111111112, 0.02, -0.08666666666666667, -0.1322222222222222]","[1, 1, 1, 1, 1]","[0, 0, 0, 0, 0]","[0, 0, 0, 0, 0]","[1.5456067000000075, 2.6323670000001584, 3.5902077000000645, 4.593063000000029, 5.730902300000025]","['target_0', 'target_3', 'target_2', 'target_4', 'target_1']",149.62672540000017,149.6353256,149.6353256,150.6295613000002,,,,,24.0,1.0,2026-02-06_13h51.11.393,visual_search,2024.1.5,,2026-02-06 13h51.34.397306 +0530,,24_visual_search_2026-02-06_13h51.11.393.csv
,,,,,,,,,,,,,,,,,,,,,,,,,,,,,,,,,,,,150.62970640000003,150.67132720000018,,,,,,,,,24_visual_search_2026-02-06_13h51.11.393.csv
,,,,,,,0.0178183000007265,0.0271243000006506,0.0174788999993324,24.58044390000032,0.0366666666666666,0.1933333333333333,1.0,0.0,0.0,,,,,,,,,,,,,,,,,,,,,,,25.0,1.0,2026-02-06_16h02.12.148,visual_search,2024.1.5,,2026-02-06 16h02.24.648204 +0530,,25_visual_search_2026-02-06_16h02.12.148.csv
red,0.0,0.0,0.0,2.0,24.71190620000016,,,,,,,,,,,24.59433920000083,24.71190620000016,0.0998049000008904,24.71190620000016,24.71190620000016,30.7740603000002,"[1.3671047000007093, 2.3537985000002664, 3.800294999999096, 4.832219399999303, 6.1910521000008885]","[0.006111111111111111, -0.07388888888888889, -0.1272222222222222, -0.10277777777777777, 0.23944444444444443]","[0.1738888888888889, 0.23444444444444446, 0.1461111111111111, -0.016666666666666666, 0.1638888888888889]","[1, 1, 1, 1, 1]","[0, 0, 0, 0, 0]","[0, 0, 0, 0, 0]","[1.2765316999993956, 2.2624522000005527, 3.7090306999998575, 4.740750000000844, 6.099493900001107]","['target_1', 'target_3', 'target_0', 'target_4', 'target_2']",30.775087500000154,30.79047470000114,30.79047470000114,31.788279700000203,,,,,25.0,1.0,2026-02-06_16h02.12.148,visual_search,2024.1.5,,2026-02-06 16h02.24.648204 +0530,,25_visual_search_2026-02-06_16h02.12.148.csv
white,0.0,1.0,1.0,0.0,31.87319010000101,,,,,,,,,,,31.788650000000416,31.87319010000101,0.0750402999983634,31.87319010000101,31.87319010000101,44.24194010000065,"[1.7015052999995532, 2.5017590999996173, 3.316419799999494, 10.42602099999931, 12.464665399998921]","[0.20277777777777778, 0.09833333333333333, 0.042222222222222223, -0.005, 0.09388888888888888]","[-0.008888888888888889, 0.005555555555555556, 0.06111111111111111, 0.2638888888888889, -0.2388888888888889]","[1, 1, 1, 1, 1]","[0, 0, 0, 0, 0]","[0, 0, 0, 0, 0]","[1.6307162000011886, 2.430811400001403, 3.245169400001032, 10.354392999999618, 12.393437400000039]","['target_3', 'target_1', 'target_4', 'target_2', 'target_0']",44.242627300000095,44.25003310000102,44.25003310000102,45.24145110000063,45.32861690000027,45.32861690000027,,,25.0,1.0,2026-02-06_16h02.12.148,visual_search,2024.1.5,,2026-02-06 16h02.24.648204 +0530,,25_visual_search_2026-02-06_16h02.12.148.csv
white,0.0,2.0,2.0,1.0,45.32861690000027,,,,,,,,,,,45.242186100000254,45.32861690000027,0.0646577999996225,45.32861690000027,45.32861690000027,53.41775419999976,"[1.8110830999994505, 4.262762799999109, 5.590927199998987, 7.003396799998882, 8.173584699999992]","[-0.011111111111111112, -0.21055555555555555, -0.12611111111111112, 0.16333333333333333, 0.15222222222222223]","[0.013888888888888888, -0.023333333333333334, -0.22444444444444445, -0.02388888888888889, -0.1811111111111111]","[1, 1, 1, 1, 1]","[0, 0, 0, 0, 0]","[0, 0, 0, 0, 0]","[1.75176829999873, 4.2031542000004265, 5.5312121999995725, 6.943677299999763, 8.113821900000403]","['target_2', 'target_0', 'target_4', 'target_1', 'target_3']",53.41840700000103,53.426219000000856,53.426219000000856,54.423146900000575,,,,,25.0,1.0,2026-02-06_16h02.12.148,visual_search,2024.1.5,,2026-02-06 16h02.24.648204 +0530,,25_visual_search_2026-02-06_16h02.12.148.csv
white,1.0,0.0,3.0,1.0,54.514723300000696,,,,,,,,,,,54.42404230000102,54.514723300000696,0.0739183999994566,54.514723300000696,54.514723300000696,60.51137480000034,"[1.392504800000097, 2.613664799999242, 3.7588423999986844, 4.884526599998935, 6.091457799999262]","[0.23166666666666666, 0.18944444444444444, -0.1411111111111111, -0.20833333333333334, -0.24722222222222223]","[-0.10722222222222222, 0.22, 0.22333333333333333, 0.06055555555555556, -0.16944444444444445]","[1, 1, 1, 1, 1]","[0, 0, 0, 0, 0]","[0, 0, 0, 0, 0]","[1.3236993999998958, 2.5455034999995405, 3.6895793999992748, 4.815565799999604, 6.022258699998929]","['target_4', 'target_2', 'target_1', 'target_0', 'target_3']",60.5120048000008,60.51986420000139,60.51986420000139,61.50603349999983,61.59827430000041,61.59827430000041,,,25.0,1.0,2026-02-06_16h02.12.148,visual_search,2024.1.5,,2026-02-06 16h02.24.648204 +0530,,25_visual_search_2026-02-06_16h02.12.148.csv
red,1.0,1.0,4.0,2.0,61.59827430000041,,,,,,,,,,,61.506752100000085,61.59827430000041,0.0634599999993952,61.59827430000041,61.59827430000041,67.20436130000053,"[1.2023164999991423, 2.2879465999994864, 3.2677239999993617, 4.4791636999998445, 5.690604399998847]","[0.24555555555555555, 0.22611111111111112, 0.026111111111111113, -0.1238888888888889, -0.20444444444444446]","[-0.030555555555555555, 0.16444444444444445, 0.19666666666666666, 0.12444444444444444, -0.09555555555555556]","[1, 1, 1, 1, 1]","[0, 0, 0, 0, 0]","[0, 0, 0, 0, 0]","[1.144683399999849, 2.229851799998869, 3.2089749999995547, 4.4204484000001685, 5.63201669999944]","['target_3', 'target_0', 'target_4', 'target_1', 'target_2']",67.2050436999998,67.21293230000083,67.21293230000083,68.20530680000047,68.29237450000073,68.29237450000073,,,25.0,1.0,2026-02-06_16h02.12.148,visual_search,2024.1.5,,2026-02-06 16h02.24.648204 +0530,,25_visual_search_2026-02-06_16h02.12.148.csv
white,1.0,2.0,5.0,0.0,68.29237450000073,,,,,,,,,,,68.20601230000102,68.29237450000073,0.0658101000008173,68.29237450000073,68.29237450000073,74.97047170000042,"[1.4978210999997827, 2.4595879999997123, 3.4385191000001214, 4.361436200000753, 6.76387590000013]","[0.02666666666666667, -0.08333333333333333, -0.19722222222222222, -0.165, 0.008333333333333333]","[-0.1111111111111111, -0.10722222222222222, -0.1438888888888889, -0.05611111111111111, 0.03277777777777778]","[1, 1, 1, 1, 1]","[0, 0, 0, 0, 0]","[0, 0, 0, 0, 0]","[1.4349860999991506, 2.396607700000459, 3.3754336000001786, 4.755517300000065, 6.70065330000034]","['target_3', 'target_1', 'target_0', 'target_4', 'target_2']",74.9711638000008,74.97895810000045,74.97895810000045,75.97060130000136,76.08901770000011,76.08901770000011,,,25.0,1.0,2026-02-06_16h02.12.148,visual_search,2024.1.5,,2026-02-06 16h02.24.648204 +0530,,25_visual_search_2026-02-06_16h02.12.148.csv
white,2.0,0.0,6.0,0.0,76.08901770000011,,,,,,,,,,,75.97123439999996,76.08901770000011,0.0856524999999237,76.08901770000011,76.08901770000011,83.93193200000132,"[1.3951851000001625, 2.6231864000001224, 5.325488899999982, 6.696974200000113, 7.959082699999271]","[0.13333333333333333, 0.225, -0.052222222222222225, -0.08, -0.18444444444444444]","[-0.03777777777777778, -0.03333333333333333, 0.049444444444444444, 0.2477777777777778, -0.12166666666666667]","[1, 1, 1, 1, 1]","[0, 0, 0, 0, 0]","[0, 0, 0, 0, 0]","[1.3156128999999055, 2.543546699998842, 5.245540300000357, 6.617030800000066, 7.879290900000342]","['target_3', 'target_2', 'target_4', 'target_1', 'target_0']",83.93261410000014,83.94116220000069,83.94116220000069,84.93624520000049,,,,,25.0,1.0,2026-02-06_16h02.12.148,visual_search,2024.1.5,,2026-02-06 16h02.24.648204 +0530,,25_visual_search_2026-02-06_16h02.12.148.csv
white,2.0,1.0,7.0,1.0,85.04565619999994,,,,,,,,,,,84.93744590000097,85.04565619999994,0.0850906999985454,85.04565619999994,85.04565619999994,90.88256879999972,"[1.2316571999999724, 2.5393120999997336, 3.74171589999969, 4.877871299999242, 5.948198899999625]","[0.20833333333333334, -0.17777777777777778, 0.1272222222222222, -0.24222222222222223, -0.15888888888888889]","[-0.11666666666666667, -0.034444444444444444, 0.145, 0.13944444444444445, 0.105]","[1, 1, 1, 1, 1]","[0, 0, 0, 0, 0]","[0, 0, 0, 0, 0]","[1.1526450000001205, 2.460229400001481, 3.662490100001378, 4.798492600000827, 5.86905790000128]","['target_1', 'target_2', 'target_3', 'target_0', 'target_4']",90.8832653999998,90.89111070000035,90.89111070000035,91.88381310000112,,,,,25.0,1.0,2026-02-06_16h02.12.148,visual_search,2024.1.5,,2026-02-06 16h02.24.648204 +0530,,25_visual_search_2026-02-06_16h02.12.148.csv
red,2.0,2.0,8.0,2.0,91.97480950000136,,,,,,,,,,,91.88423820000024,91.97480950000136,0.0696576999998797,91.97480950000136,91.97480950000136,97.78426920000128,"[1.2839122999994288, 2.3138096000002406, 3.303150199999436, 4.34633439999925, 5.899457299999995]","[0.017222222222222222, 0.105, 0.08722222222222223, 0.16444444444444445, -0.0077777777777777776]","[-0.16055555555555556, 0.029444444444444443, 0.15055555555555555, 0.20944444444444443, 0.22444444444444445]","[1, 1, 1, 1, 1]","[0, 0, 0, 0, 0]","[0, 0, 0, 0, 0]","[1.2197943000010127, 2.2492756999999983, 3.2387761999998474, 4.28148450000117, 5.834661400000186]","['target_1', 'target_2', 'target_3', 'target_4', 'target_0']",97.78497229999994,97.79299739999988,97.79299739999988,98.7843055000012,98.89327490000142,98.89327490000142,,,25.0,1.0,2026-02-06_16h02.12.148,visual_search,2024.1.5,,2026-02-06 16h02.24.648204 +0530,,25_visual_search_2026-02-06_16h02.12.148.csv
red,3.0,0.0,9.0,2.0,98.89327490000142,,,,,,,,,,,98.78574620000109,98.89327490000142,0.079122199998892,98.89327490000142,98.89327490000142,105.50473030000104,"[1.5453863999991881, 2.7534978999992745, 3.6696186999997735, 5.411441799999011, 6.718112599999586]","[0.11555555555555555, 0.19944444444444445, 0.21444444444444444, -0.18222222222222223, -0.2388888888888889]","[0.08555555555555555, 0.13111111111111112, 0.26555555555555554, -0.03111111111111111, 0.23055555555555557]","[1, 1, 1, 1, 1]","[0, 0, 0, 0, 0]","[0, 0, 0, 0, 0]","[1.4729067999996914, 2.681507799999963, 3.5964974999988044, 5.338293499999054, 6.645045399998708]","['target_1', 'target_3', 'target_2', 'target_0', 'target_4']",105.50538140000026,105.51309290000064,105.51309290000064,106.50087840000016,106.59215300000142,106.59215300000142,,,25.0,1.0,2026-02-06_16h02.12.148,visual_search,2024.1.5,,2026-02-06 16h02.24.648204 +0530,,25_visual_search_2026-02-06_16h02.12.148.csv
white,3.0,1.0,10.0,0.0,106.59215300000142,,,,,,,,,,,106.5019368000012,106.59215300000142,0.0643474999997124,106.59215300000142,106.59215300000142,113.83520230000067,"[1.620632600001045, 3.4913440000000264, 4.784227199999805, 5.9794622999997955, 7.328308400001333]","[-0.017222222222222222, -0.19, -0.225, -0.08055555555555556, -0.017777777777777778]","[-0.1361111111111111, -0.085, 0.1938888888888889, 0.14, 0.08388888888888889]","[1, 1, 1, 1, 1]","[0, 0, 0, 0, 0]","[0, 0, 0, 0, 0]","[1.5597035000009782, 3.430086600001232, 4.72334520000004, 5.918074900000647, 7.266900000000533]","['target_2', 'target_4', 'target_1', 'target_0', 'target_3']",113.8358758000013,113.84380320000128,113.84380320000128,114.83154470000044,114.92386179999994,114.92386179999994,,,25.0,1.0,2026-02-06_16h02.12.148,visual_search,2024.1.5,,2026-02-06 16h02.24.648204 +0530,,25_visual_search_2026-02-06_16h02.12.148.csv
white,3.0,2.0,11.0,1.0,114.92386179999994,,,,,,,,,,,114.8323515000011,114.92386179999994,0.0611199999984819,114.92386179999994,114.92386179999994,120.9311886000014,"[1.449880000000121, 2.3219517999987147, 3.3713173999985884, 4.6907858999984455, 6.093334799999866]","[0.011111111111111112, -0.09, -0.235, 0.17222222222222222, 0.23722222222222222]","[-0.09277777777777778, -0.20277777777777778, 0.04, 0.18833333333333332, 0.06055555555555556]","[1, 1, 1, 1, 1]","[0, 0, 0, 0, 0]","[0, 0, 0, 0, 0]","[1.392010700001265, 2.2642116000006354, 3.313084400000662, 4.632404199999655, 6.035304299999552]","['target_4', 'target_3', 'target_2', 'target_0', 'target_1']",120.9318600000006,120.93955290000122,120.93955290000122,121.9299318000012,122.01602900000034,122.01602900000034,,,25.0,1.0,2026-02-06_16h02.12.148,visual_search,2024.1.5,,2026-02-06 16h02.24.648204 +0530,,25_visual_search_2026-02-06_16h02.12.148.csv
white,4.0,0.0,12.0,0.0,122.01602900000034,,,,,,,,,,,121.93033690000084,122.01602900000034,0.0596019999993586,122.01602900000034,122.01602900000034,128.74549579999984,"[1.2313078999995923, 2.2841964999988704, 3.3151543000003585, 4.442003699999987, 6.811084299999493]","[0.15166666666666667, -0.10722222222222222, -0.17277777777777778, -0.16722222222222222, 0.21055555555555555]","[-0.10277777777777777, -0.08055555555555556, -0.14888888888888888, 0.035555555555555556, -0.2311111111111111]","[1, 1, 1, 1, 1]","[0, 0, 0, 0, 0]","[0, 0, 0, 0, 0]","[1.1750615000000835, 2.227555699999357, 3.258420699999988, 4.385181499999817, 6.755316299999322]","['target_0', 'target_1', 'target_3', 'target_4', 'target_2']",128.74619600000003,128.75421840000126,128.75421840000126,129.74628720000146,129.83364220000112,129.83364220000112,,,25.0,1.0,2026-02-06_16h02.12.148,visual_search,2024.1.5,,2026-02-06 16h02.24.648204 +0530,,25_visual_search_2026-02-06_16h02.12.148.csv
red,4.0,1.0,13.0,2.0,129.83364220000112,,,,,,,,,,,129.74701190000087,129.83364220000112,0.065255800000159,129.83364220000112,129.83364220000112,134.96294880000096,"[1.0904745999996521, 1.4363008000000264, 2.3575455999998667, 4.210499400000117, 5.2152908999996725]","[0.23277777777777778, 0.1438888888888889, 0.21388888888888888, -0.04833333333333333, -0.051111111111111114]","[-0.05, 0.006666666666666667, 0.06722222222222222, 0.0661111111111111, -0.09944444444444445]","[1, 1, 1, 1, 1]","[0, 0, 0, 0, 0]","[0, 0, 0, 0, 0]","[1.0286484000007476, 1.8814523000000918, 2.7981537000014214, 4.148338500001046, 5.152998900000966]","['target_3', 'target_0', 'target_4', 'target_1', 'target_2']",134.96362920000138,134.97219899999982,134.97219899999982,135.96296380000058,136.0667024000013,136.0667024000013,,,25.0,1.0,2026-02-06_16h02.12.148,visual_search,2024.1.5,,2026-02-06 16h02.24.648204 +0530,,25_visual_search_2026-02-06_16h02.12.148.csv
white,4.0,2.0,14.0,1.0,136.0667024000013,,,,,,,,,,,135.96385610000107,136.0667024000013,0.076434299999164,136.0667024000013,136.0667024000013,141.59154099999978,"[1.275872000000163, 2.33014539999931, 3.5559456999999384, 4.4867416999986744, 5.626479799999288]","[0.17722222222222223, 0.17944444444444443, -0.07833333333333334, -0.12666666666666668, -0.22944444444444445]","[-0.09277777777777778, 0.1827777777777778, 0.1827777777777778, 0.24444444444444444, 0.2461111111111111]","[1, 1, 1, 1, 1]","[0, 0, 0, 0, 0]","[0, 0, 0, 0, 0]","[1.2032541999997193, 2.2585637000011047, 3.48285130000113, 4.413647600000331, 5.553267799999958]","['target_2', 'target_1', 'target_3', 'target_4', 'target_0']",141.5921957999999,141.60055269999975,141.60055269999975,142.59372500000063,,,,,25.0,1.0,2026-02-06_16h02.12.148,visual_search,2024.1.5,,2026-02-06 16h02.24.648204 +0530,,25_visual_search_2026-02-06_16h02.12.148.csv
,,,,,,,,,,,,,,,,,,,,,,,,,,,,,,,,,,,,142.5938796999999,142.6162787000012,,,,,,,,,25_visual_search_2026-02-06_16h02.12.148.csv
,,,,,,,0.0076334000004862,0.0289461000011215,0.007375300001513,54.02870970000004,0.0205555555555555,0.0172222222222222,1.0,0.0,0.0,,,,,,,,,,,,,,,,,,,,,,,26.0,1.0,2026-02-06_15h57.34.272,visual_search,2024.1.5,,2026-02-06 15h57.53.383819 +0530,,26_visual_search_2026-02-06_15h57.34.272.csv
white,0.0,0.0,0.0,1.0,55.71626660000038,,,,,,,,,,,54.06004480000047,55.71626660000038,0.1084859999991749,55.71626660000038,55.71626660000038,62.95783490000031,"[3.7361648000005516, 4.867395299999771, 6.021161500000744, 7.193273999999292, 8.926095599999826]","[-0.12444444444444444, -0.02277777777777778, 0.06888888888888889, 0.17944444444444443, -0.07555555555555556]","[-0.065, -0.2338888888888889, -0.20833333333333334, -0.20555555555555555, 0.21833333333333332]","[1, 1, 1, 1, 1]","[0, 0, 0, 0, 0]","[0, 0, 0, 0, 0]","[3.6357762000006915, 4.766810999999507, 5.920468199999959, 7.092248099999779, 8.82511440000053]","['target_4', 'target_1', 'target_0', 'target_2', 'target_3']",62.958855400000175,62.97492280000006,62.97492280000006,63.96683500000108,,,,,26.0,1.0,2026-02-06_15h57.34.272,visual_search,2024.1.5,,2026-02-06 15h57.53.383819 +0530,,26_visual_search_2026-02-06_15h57.34.272.csv
red,0.0,1.0,1.0,2.0,64.05597850000049,,,,,,,,,,,63.96794130000126,64.05597850000049,0.0751882000004116,64.05597850000049,64.05597850000049,72.09160180000072,"[3.774557900000218, 4.7804300999996485, 5.78569140000036, 7.00452899999982, 8.131179699999848]","[-0.075, -0.175, -0.19611111111111112, -0.22166666666666668, 0.17888888888888888]","[-0.055, -0.023333333333333334, 0.08888888888888889, -0.16722222222222222, -0.01888888888888889]","[1, 1, 1, 1, 1]","[0, 0, 0, 0, 0]","[0, 0, 0, 0, 0]","[3.702141900001152, 4.708400400000755, 5.7130778999999166, 6.931875800000853, 8.05859480000072]","['target_4', 'target_3', 'target_1', 'target_2', 'target_0']",72.0923199000008,72.09967040000083,72.09967040000083,73.09874180000043,,,,,26.0,1.0,2026-02-06_15h57.34.272,visual_search,2024.1.5,,2026-02-06 15h57.53.383819 +0530,,26_visual_search_2026-02-06_15h57.34.272.csv
white,0.0,2.0,2.0,0.0,73.20273180000004,,,,,,,,,,,73.09954490000018,73.20273180000004,0.083092700000634,73.20273180000004,73.20273180000004,79.47083620000012,"[1.7081047000010585, 2.324546100000589, 4.394994800000859, 5.3167463000008865, 6.376862700000856]","[-0.19833333333333333, -0.09277777777777778, 0.08166666666666667, 0.08, 0.1638888888888889]","[0.24333333333333335, 0.23222222222222222, 0.08444444444444445, 0.006111111111111111, -0.013888888888888888]","[1, 1, 1, 1, 1]","[0, 0, 0, 0, 0]","[0, 0, 0, 0, 0]","[1.6305879999999888, 2.661438499999349, 4.316822999999204, 5.23852319999969, 6.298692799999117]","['target_4', 'target_1', 'target_2', 'target_3', 'target_0']",79.47149020000143,79.47930860000088,79.47930860000088,80.4658443999997,80.57621980000113,80.57621980000113,,,26.0,1.0,2026-02-06_15h57.34.272,visual_search,2024.1.5,,2026-02-06 15h57.53.383819 +0530,,26_visual_search_2026-02-06_15h57.34.272.csv
white,1.0,0.0,3.0,0.0,80.57621980000113,,,,,,,,,,,80.46654990000025,80.57621980000113,0.0773241999995661,80.57621980000113,80.57621980000113,87.32400469999993,"[1.9448941999999079, 2.915214399999968, 4.288577799999985, 5.514602699999159, 6.850831699999617]","[0.021666666666666667, 0.18333333333333332, 0.012222222222222223, -0.17166666666666666, 0.18944444444444444]","[0.21722222222222223, 0.19777777777777777, 0.051111111111111114, -0.0044444444444444444, -0.06444444444444444]","[1, 1, 1, 1, 1]","[0, 0, 0, 0, 0]","[0, 0, 0, 0, 0]","[1.8736291999994137, 2.84338310000021, 4.216575500000545, 5.442511100000047, 6.77892840000095]","['target_2', 'target_3', 'target_4', 'target_0', 'target_1']",87.32471170000099,87.33255110000027,87.33255110000027,88.33075860000099,,,,,26.0,1.0,2026-02-06_15h57.34.272,visual_search,2024.1.5,,2026-02-06 15h57.53.383819 +0530,,26_visual_search_2026-02-06_15h57.34.272.csv
red,1.0,1.0,4.0,2.0,88.42306290000124,,,,,,,,,,,88.33198000000084,88.42306290000124,0.0755349999999452,88.42306290000124,88.42306290000124,95.00103300000046,"[1.9553056999993714, 3.109252899999774, 4.032945299999483, 5.330224899998939, 6.674867300000187]","[-0.19444444444444445, -0.06055555555555556, 0.015, 0.20833333333333334, 0.22833333333333333]","[0.15777777777777777, 0.03277777777777778, -0.03277777777777778, 0.26, -0.013333333333333334]","[1, 1, 1, 1, 1]","[0, 0, 0, 0, 0]","[0, 0, 0, 0, 0]","[1.8849408000005496, 3.038663600000291, 3.9627897999998822, 5.259381500000018, 6.603999599999952]","['target_3', 'target_2', 'target_1', 'target_0', 'target_4']",95.0016840999997,95.0094140000001,95.0094140000001,95.99685450000106,96.08908530000008,96.08908530000008,,,26.0,1.0,2026-02-06_15h57.34.272,visual_search,2024.1.5,,2026-02-06 15h57.53.383819 +0530,,26_visual_search_2026-02-06_15h57.34.272.csv
white,1.0,2.0,5.0,1.0,96.08908530000008,,,,,,,,,,,95.99760250000143,96.08908530000008,0.0594371999995928,96.08908530000008,96.08908530000008,103.330574900001,"[1.2178285000009055, 2.9669192000001203, 4.552143099999739, 5.772590200000195, 7.32653449999998]","[-0.04888888888888889, -0.22444444444444445, -0.013888888888888888, 0.02, 0.10444444444444445]","[0.23777777777777778, -0.10277777777777777, 0.0022222222222222222, -0.13555555555555557, -0.15166666666666667]","[1, 1, 1, 1, 1]","[0, 0, 0, 0, 0]","[0, 0, 0, 0, 0]","[1.1615068999999494, 2.910163900000043, 4.495596500000829, 5.715977900001235, 7.270305400001234]","['target_2', 'target_1', 'target_4', 'target_3', 'target_0']",103.33167370000048,103.3416326000006,103.3416326000006,104.32787570000072,104.41448570000102,104.41448570000102,,,26.0,1.0,2026-02-06_15h57.34.272,visual_search,2024.1.5,,2026-02-06 15h57.53.383819 +0530,,26_visual_search_2026-02-06_15h57.34.272.csv
white,2.0,0.0,6.0,0.0,104.41448570000102,,,,,,,,,,,104.32831910000095,104.41448570000102,0.060794299999543,104.41448570000102,104.41448570000102,111.56115230000069,"[2.1811484999998356, 3.66026520000014, 4.971213099999659, 6.088514600000053, 7.227959300000293]","[0.10222222222222223, -0.11222222222222222, -0.08, 0.06111111111111111, 0.17833333333333334]","[-0.09833333333333333, -0.1288888888888889, -0.23, -0.18444444444444444, -0.20944444444444443]","[1, 1, 1, 1, 1]","[0, 0, 0, 0, 0]","[0, 0, 0, 0, 0]","[2.1263629000004585, 3.6049495000006573, 4.91573199999948, 6.033005299999786, 7.1724255999997695]","['target_1', 'target_2', 'target_0', 'target_4', 'target_3']",111.56183670000064,111.5695549000011,111.5695549000011,112.56148810000012,112.65328729999965,112.65328729999965,,,26.0,1.0,2026-02-06_15h57.34.272,visual_search,2024.1.5,,2026-02-06 15h57.53.383819 +0530,,26_visual_search_2026-02-06_15h57.34.272.csv
red,2.0,1.0,7.0,2.0,112.65328729999965,,,,,,,,,,,112.56235590000142,112.65328729999965,0.0691892000013467,112.65328729999965,112.65328729999965,118.25506230000065,"[1.4492089000013948, 2.5702817000001232, 3.495971100001043, 4.586689400000978, 5.691794300000765]","[-0.11833333333333333, 0.11388888888888889, 0.125, 0.06222222222222222, -0.085]","[0.16055555555555556, 0.19444444444444445, -0.06555555555555556, -0.16833333333333333, -0.21444444444444444]","[1, 1, 1, 1, 1]","[0, 0, 0, 0, 0]","[0, 0, 0, 0, 0]","[1.385407199999463, 2.506174000000101, 3.4317886000008, 4.522487100000944, 5.627429699999993]","['target_1', 'target_2', 'target_0', 'target_3', 'target_4']",118.25576040000124,118.2635418000009,118.2635418000009,119.2594208999999,,,,,26.0,1.0,2026-02-06_15h57.34.272,visual_search,2024.1.5,,2026-02-06 15h57.53.383819 +0530,,26_visual_search_2026-02-06_15h57.34.272.csv
white,2.0,2.0,8.0,1.0,119.35110150000035,,,,,,,,,,,119.26034980000075,119.35110150000035,0.0731790999998338,119.35110150000035,119.35110150000035,125.00742890000038,"[1.2544137999993836, 2.551465599999574, 3.5317950999997265, 4.5891131999997015, 5.750034400000004]","[-0.20722222222222222, -0.225, -0.21611111111111111, -0.1438888888888889, -0.04611111111111111]","[0.2477777777777778, -0.12833333333333333, -0.21611111111111111, -0.07555555555555556, -0.15055555555555555]","[1, 1, 1, 1, 1]","[0, 0, 0, 0, 0]","[0, 0, 0, 0, 0]","[1.1869150000002264, 2.48335600000064, 3.4634743000005983, 4.520879700001387, 5.681760600000416]","['target_0', 'target_4', 'target_3', 'target_2', 'target_1']",125.00808150000012,125.0159177000005,125.0159177000005,126.0086640999998,126.10054740000125,126.10054740000125,,,26.0,1.0,2026-02-06_15h57.34.272,visual_search,2024.1.5,,2026-02-06 15h57.53.383819 +0530,,26_visual_search_2026-02-06_15h57.34.272.csv
red,3.0,0.0,9.0,2.0,126.10054740000125,,,,,,,,,,,126.00936960000035,126.10054740000125,0.0693933000002289,126.10054740000125,126.10054740000125,131.88128479999978,"[1.3393080999994709, 2.407885799999349, 3.7492525999987265, 4.731476699998893, 5.8717184999986785]","[-0.13277777777777777, 0.04388888888888889, 0.1711111111111111, -0.049444444444444444, -0.165]","[0.07833333333333334, 0.08333333333333333, -0.03888888888888889, -0.04055555555555555, -0.17055555555555554]","[1, 1, 1, 1, 1]","[0, 0, 0, 0, 0]","[0, 0, 0, 0, 0]","[1.2767198999990796, 2.345675599999595, 3.686263899999176, 4.668415399999503, 5.808620699999665]","['target_0', 'target_1', 'target_3', 'target_2', 'target_4']",131.8819069000001,131.8901904000013,131.8901904000013,132.87532269999974,132.96225510000113,132.96225510000113,,,26.0,1.0,2026-02-06_15h57.34.272,visual_search,2024.1.5,,2026-02-06 15h57.53.383819 +0530,,26_visual_search_2026-02-06_15h57.34.272.csv
white,3.0,1.0,10.0,1.0,132.96225510000113,,,,,,,,,,,132.87609140000131,132.96225510000113,0.0584797999999864,132.96225510000113,132.96225510000113,140.35665830000107,"[1.3149329999996553, 2.388205499999458, 3.649445899998682, 4.6257257999986905, 7.473205699998289]","[-0.15833333333333333, -0.2477777777777778, 0.07833333333333334, 0.04388888888888889, 0.19333333333333333]","[0.10833333333333334, 0.06, -0.03611111111111111, -0.13777777777777778, -0.09055555555555556]","[1, 1, 1, 1, 1]","[0, 0, 0, 0, 0]","[0, 0, 0, 0, 0]","[1.2597661999989214, 2.3329690999999, 3.593715199998769, 4.570000499999878, 7.417502199999944]","['target_2', 'target_4', 'target_3', 'target_0', 'target_1']",140.3573832000002,140.3654641000012,140.3654641000012,141.35716409999986,141.44267070000024,141.44267070000024,,,26.0,1.0,2026-02-06_15h57.34.272,visual_search,2024.1.5,,2026-02-06 15h57.53.383819 +0530,,26_visual_search_2026-02-06_15h57.34.272.csv
white,3.0,2.0,11.0,0.0,141.44267070000024,,,,,,,,,,,141.357882100001,141.44267070000024,0.0635041000005003,141.44267070000024,141.44267070000024,146.6862987000004,"[1.1262421999999788, 2.154866700000639, 3.0035251999997854, 3.4413863999998284, 5.32745149999937]","[-0.10333333333333333, -0.2222222222222222, -0.16055555555555556, -0.19666666666666666, -0.06888888888888889]","[0.19166666666666668, 0.04888888888888889, -0.07, -0.1661111111111111, 0.029444444444444443]","[1, 1, 1, 1, 1]","[0, 0, 0, 0, 0]","[0, 0, 0, 0, 0]","[1.0660609000005934, 2.0943015000011656, 2.943095500000709, 3.8013217999996414, 5.266660700001012]","['target_2', 'target_4', 'target_3', 'target_0', 'target_1']",146.68692850000116,146.6949622000011,146.6949622000011,147.6885216999999,,,,,26.0,1.0,2026-02-06_15h57.34.272,visual_search,2024.1.5,,2026-02-06 15h57.53.383819 +0530,,26_visual_search_2026-02-06_15h57.34.272.csv
red,4.0,0.0,12.0,2.0,147.77698480000072,,,,,,,,,,,147.68927000000076,147.77698480000072,0.0682123000005958,147.77698480000072,147.77698480000072,154.0992634000013,"[1.7695509000004677, 2.8204440000008617, 4.000934900001084, 5.371387400000458, 6.410828199999742]","[-0.15444444444444444, -0.019444444444444445, 0.19333333333333333, 0.006111111111111111, -0.15]","[0.16444444444444445, 0.12111111111111111, 0.08444444444444445, -0.15833333333333333, -0.10111111111111111]","[1, 1, 1, 1, 1]","[0, 0, 0, 0, 0]","[0, 0, 0, 0, 0]","[1.7044776999991882, 2.755202399999689, 3.9355696000002354, 5.306112599999324, 6.345437599999059]","['target_4', 'target_2', 'target_1', 'target_3', 'target_0']",154.09994860000006,154.107907900001,154.107907900001,155.10438980000072,,,,,26.0,1.0,2026-02-06_15h57.34.272,visual_search,2024.1.5,,2026-02-06 15h57.53.383819 +0530,,26_visual_search_2026-02-06_15h57.34.272.csv
white,4.0,1.0,13.0,1.0,155.19835539999983,,,,,,,,,,,155.1052765000004,155.19835539999983,0.0755026999995607,155.19835539999983,155.19835539999983,161.66470750000008,"[1.383783699999185, 2.8710931000005075, 4.153268799998841, 5.271033999999418, 6.561996399999771]","[-0.1411111111111111, 0.03833333333333333, -0.17333333333333334, 0.025, 0.23166666666666666]","[0.045, -0.07444444444444444, -0.17666666666666667, -0.20777777777777778, 0.18888888888888888]","[1, 1, 1, 1, 1]","[0, 0, 0, 0, 0]","[0, 0, 0, 0, 0]","[1.3116494999994757, 2.7991984999989654, 4.080887899999652, 5.1991866999997, 6.490381599998727]","['target_3', 'target_1', 'target_4', 'target_0', 'target_2']",161.66590180000094,161.67609430000084,161.67609430000084,162.66953410000133,,,,,26.0,1.0,2026-02-06_15h57.34.272,visual_search,2024.1.5,,2026-02-06 15h57.53.383819 +0530,,26_visual_search_2026-02-06_15h57.34.272.csv
white,4.0,2.0,14.0,0.0,162.76895890000014,,,,,,,,,,,162.67026890000125,162.76895890000014,0.0808170000000245,162.76895890000014,162.76895890000014,169.0232801000002,"[1.5845778999992035, 2.687591199999588, 3.7754332999993494, 4.990211799999088, 6.355837600000086]","[-0.06888888888888889, 0.058333333333333334, -0.06777777777777778, 0.1688888888888889, 0.04833333333333333]","[0.09777777777777778, 0.13833333333333334, 0.0, 0.03722222222222222, -0.145]","[1, 1, 1, 1, 1]","[0, 0, 0, 0, 0]","[0, 0, 0, 0, 0]","[1.5072086999989551, 2.6097768999989057, 3.697481199998947, 4.912382399999842, 6.27790719999939]","['target_1', 'target_2', 'target_3', 'target_0', 'target_4']",169.023988500001,169.03202360000068,169.03202360000068,170.0203220000003,170.04095120000056,170.04095120000056,,,26.0,1.0,2026-02-06_15h57.34.272,visual_search,2024.1.5,,2026-02-06 15h57.53.383819 +0530,,26_visual_search_2026-02-06_15h57.34.272.csv
,,,,,,,,,,,,,,,,,,,,,,,,,,,,,,,,,,,,170.0204887,170.04095120000056,,,,,,,,,26_visual_search_2026-02-06_15h57.34.272.csv
,,,,,,,0.014066200000002,0.0202896000000123,0.0137663999999517,24.988665499999968,-0.0755555555555555,0.1911111111111111,1.0,0.0,0.0,,,,,,,,,,,,,,,,,,,,,,,27.0,1.0,2026-02-07_05h42.18.301,visual_search,2024.1.5,,2026-02-07 05h43.51.340644 +0530,,27_visual_search_2026-02-07_05h42.18.301.csv
white,0.0,0.0,0.0,0.0,25.09777759999997,,,,,,,,,,,25.02542990000001,25.09777759999997,0.0884249999999724,25.09777759999997,25.09777759999997,31.401550999999984,"[1.1978791999999885, 2.5267888999999855, 3.7321804000000043, 5.120272199999988, 6.407901999999979]","[-0.03611111111111111, -0.24833333333333332, -0.2388888888888889, -0.21333333333333335, 0.2311111111111111]","[0.095, 0.008333333333333333, -0.24944444444444444, -0.14722222222222223, 0.10111111111111111]","[1, 1, 1, 1, 1]","[0, 0, 0, 0, 0]","[0, 0, 0, 0, 0]","[1.1147066999999993, 2.4439821999999936, 3.64922729999995, 5.038077799999996, 6.324825299999986]","['target_1', 'target_0', 'target_3', 'target_4', 'target_2']",31.40509800000001,31.417545200000006,31.417545200000006,32.402835100000004,32.466274,32.466274,,,27.0,1.0,2026-02-07_05h42.18.301,visual_search,2024.1.5,,2026-02-07 05h43.51.340644 +0530,,27_visual_search_2026-02-07_05h42.18.301.csv
white,0.0,1.0,1.0,1.0,32.466274,,,,,,,,,,,32.40325180000002,32.466274,0.0460643999999774,32.466274,32.466274,39.20596219999999,"[1.1649097000000097, 2.450486099999978, 4.440721800000006, 5.416612799999996, 6.79946289999998]","[0.23666666666666666, -0.17777777777777778, 0.19055555555555556, 0.15944444444444444, -0.20055555555555554]","[0.12111111111111111, 0.25555555555555554, -0.034444444444444444, 0.095, -0.07111111111111111]","[1, 1, 1, 1, 1]","[0, 0, 0, 0, 0]","[0, 0, 0, 0, 0]","[1.121336499999984, 2.406599099999994, 4.396569699999986, 5.372502300000008, 6.755482700000016]","['target_0', 'target_1', 'target_3', 'target_4', 'target_2']",39.20648970000002,39.21309630000002,39.21309630000002,40.201745200000005,40.27526660000001,40.27526660000001,,,27.0,1.0,2026-02-07_05h42.18.301,visual_search,2024.1.5,,2026-02-07 05h43.51.340644 +0530,,27_visual_search_2026-02-07_05h42.18.301.csv
red,0.0,2.0,2.0,2.0,40.27526660000001,,,,,,,,,,,40.20214440000001,40.27526660000001,0.0464499000000273,40.27526660000001,40.27526660000001,46.53986579999997,"[2.192252900000028, 3.2064311999999973, 4.172616699999992, 5.106875800000012, 6.33176560000004]","[-0.027777777777777776, 0.056666666666666664, 0.22166666666666668, 0.12111111111111111, 0.12444444444444444]","[-0.08388888888888889, -0.205, -0.04888888888888889, 0.06388888888888888, 0.2222222222222222]","[1, 1, 1, 1, 1]","[0, 0, 0, 0, 0]","[0, 0, 0, 0, 0]","[2.149505799999986, 3.164719699999978, 4.129742799999974, 5.065325799999982, 6.289121899999998]","['target_2', 'target_0', 'target_1', 'target_4', 'target_3']",46.54035929999998,46.54760019999998,46.54760019999998,47.5336944,47.59759329999997,47.59759329999997,,,27.0,1.0,2026-02-07_05h42.18.301,visual_search,2024.1.5,,2026-02-07 05h43.51.340644 +0530,,27_visual_search_2026-02-07_05h42.18.301.csv
white,1.0,0.0,3.0,0.0,47.59759329999997,,,,,,,,,,,47.53418909999999,47.59759329999997,0.0398084999999923,47.59759329999997,47.59759329999997,54.25193289999999,"[1.7214045000000056, 2.7036337000000117, 4.901410100000021, 5.8665406000000075, 6.709477700000036]","[0.007222222222222222, -0.04555555555555556, 0.21055555555555555, 0.05388888888888889, 0.019444444444444445]","[0.21555555555555556, 0.13111111111111112, -0.07166666666666667, -0.24333333333333335, -0.15611111111111112]","[1, 1, 1, 1, 1]","[0, 0, 0, 0, 0]","[0, 0, 0, 0, 0]","[1.6863012000000026, 2.6680791, 4.86576500000001, 5.830641500000013, 6.67396679999996]","['target_2', 'target_0', 'target_1', 'target_3', 'target_4']",54.25275249999999,54.26106699999997,54.26106699999997,55.2543814,,,,,27.0,1.0,2026-02-07_05h42.18.301,visual_search,2024.1.5,,2026-02-07 05h43.51.340644 +0530,,27_visual_search_2026-02-07_05h42.18.301.csv
white,1.0,1.0,4.0,1.0,55.31854219999997,,,,,,,,,,,55.25490659999997,55.31854219999997,0.0490404000000239,55.31854219999997,55.31854219999997,66.53564080000001,"[2.539614400000005, 3.9828085999999985, 5.612917900000014, 6.842747599999996, 11.281439000000034]","[-0.22944444444444445, -0.18444444444444444, 0.16166666666666665, -0.035555555555555556, -0.1238888888888889]","[-0.19055555555555556, 0.025555555555555557, 0.14277777777777778, 0.02388888888888889, -0.05388888888888889]","[1, 1, 1, 1, 1]","[0, 0, 0, 0, 0]","[0, 0, 0, 0, 0]","[2.4952394000000027, 3.937497399999984, 5.568153499999994, 6.797893299999998, 11.236169700000005]","['target_0', 'target_4', 'target_2', 'target_1', 'target_3']",66.53620519999998,66.54345699999999,66.54345699999999,67.5310591,67.61746360000001,67.61746360000001,,,27.0,1.0,2026-02-07_05h42.18.301,visual_search,2024.1.5,,2026-02-07 05h43.51.340644 +0530,,27_visual_search_2026-02-07_05h42.18.301.csv
red,1.0,2.0,5.0,2.0,67.61746360000001,,,,,,,,,,,67.53162249999997,67.61746360000001,0.0531508000000258,67.61746360000001,67.61746360000001,73.33857690000002,"[1.5931635000000028, 2.673992499999997, 3.7228554000000145, 4.91852990000001, 5.799997000000019]","[-0.2411111111111111, -0.21444444444444444, -0.20277777777777778, -0.04, -0.03277777777777778]","[0.11277777777777778, 0.01611111111111111, -0.13944444444444445, -0.07555555555555556, 0.021111111111111112]","[1, 1, 1, 1, 1]","[0, 0, 0, 0, 0]","[0, 0, 0, 0, 0]","[1.543757200000016, 2.6236739000000284, 3.6733417000000372, 4.868918199999996, 5.750574200000017]","['target_2', 'target_0', 'target_4', 'target_3', 'target_1']",73.33946029999998,73.34757129999997,73.34757129999997,74.34072170000002,,,,,27.0,1.0,2026-02-07_05h42.18.301,visual_search,2024.1.5,,2026-02-07 05h43.51.340644 +0530,,27_visual_search_2026-02-07_05h42.18.301.csv
white,2.0,0.0,6.0,0.0,74.42448939999997,,,,,,,,,,,74.34122589999998,74.42448939999997,0.0647865999999908,74.42448939999997,74.42448939999997,80.3565635,"[1.3937748999999826, 2.9617357999999854, 3.885242699999992, 4.702657200000033, 6.015100300000029]","[0.13666666666666666, -0.05333333333333334, -0.21222222222222223, -0.06722222222222222, 0.20166666666666666]","[0.17055555555555554, 0.10055555555555555, -0.11888888888888889, -0.22944444444444445, -0.0077777777777777776]","[1, 1, 1, 1, 1]","[0, 0, 0, 0, 0]","[0, 0, 0, 0, 0]","[1.334404099999972, 2.9019382999999266, 3.825671199999931, 4.642414200000019, 5.9549420999999825]","['target_3', 'target_0', 'target_2', 'target_4', 'target_1']",80.35743809999997,80.36603309999998,80.36603309999998,81.3512892,81.44391970000004,81.44391970000004,,,27.0,1.0,2026-02-07_05h42.18.301,visual_search,2024.1.5,,2026-02-07 05h43.51.340644 +0530,,27_visual_search_2026-02-07_05h42.18.301.csv
white,2.0,1.0,7.0,1.0,81.44391970000004,,,,,,,,,,,81.35186780000004,81.44391970000004,0.0610659999999825,81.44391970000004,81.44391970000004,86.57076889999996,"[1.1274531999999908, 1.9379600999999411, 3.132318899999973, 4.054041299999994, 5.212048999999979]","[-0.10444444444444445, -0.13444444444444445, -0.028333333333333332, 0.1322222222222222, 0.21666666666666667]","[0.11777777777777777, 0.05388888888888889, -0.145, -0.008888888888888889, -0.17666666666666667]","[1, 1, 1, 1, 1]","[0, 0, 0, 0, 0]","[0, 0, 0, 0, 0]","[1.0718058999999585, 1.8829365999999936, 3.076695500000028, 3.998852700000043, 5.156231199999979]","['target_3', 'target_2', 'target_1', 'target_0', 'target_4']",86.57133850000002,86.57896129999995,86.57896129999995,87.5720652,,,,,27.0,1.0,2026-02-07_05h42.18.301,visual_search,2024.1.5,,2026-02-07 05h43.51.340644 +0530,,27_visual_search_2026-02-07_05h42.18.301.csv
red,2.0,2.0,8.0,2.0,87.65628349999997,,,,,,,,,,,87.57255999999995,87.65628349999997,0.0687120000000049,87.65628349999997,87.65628349999997,92.55311559999996,"[1.4402714000000287, 2.3501768999999513, 3.210640099999978, 4.103761299999974, 4.979661100000044]","[0.08833333333333333, 0.1338888888888889, 0.19611111111111112, 0.027777777777777776, -0.15666666666666668]","[0.22611111111111112, 0.0811111111111111, -0.1238888888888889, -0.21166666666666667, -0.16944444444444445]","[1, 1, 1, 1, 1]","[0, 0, 0, 0, 0]","[0, 0, 0, 0, 0]","[1.3766442000001007, 2.2866088000000673, 3.146839800000066, 4.0401028, 4.915834500000074]","['target_1', 'target_4', 'target_2', 'target_3', 'target_0']",92.55404120000004,92.5631816,92.5631816,93.5494744,93.62729049999996,93.62729049999996,,,27.0,1.0,2026-02-07_05h42.18.301,visual_search,2024.1.5,,2026-02-07 05h43.51.340644 +0530,,27_visual_search_2026-02-07_05h42.18.301.csv
red,3.0,0.0,9.0,2.0,93.62729049999996,,,,,,,,,,,93.54993679999995,93.62729049999996,0.0479195000000345,93.62729049999996,93.62729049999996,98.2992822,"[1.02448650000008, 1.9069620000000214, 2.7412937000000284, 3.8398070000000644, 4.743339600000013]","[-0.06666666666666667, 0.021111111111111112, -0.1322222222222222, 0.049444444444444444, 0.22944444444444445]","[0.2111111111111111, -0.02722222222222222, -0.14222222222222222, -0.25055555555555553, -0.21333333333333335]","[1, 1, 1, 1, 1]","[0, 0, 0, 0, 0]","[0, 0, 0, 0, 0]","[0.9829610000000457, 1.8647512000000006, 2.6992938000000777, 3.7977447000000666, 4.701122700000042]","['target_1', 'target_4', 'target_2', 'target_0', 'target_3']",98.30007750000004,98.30910240000004,98.30910240000004,99.29324399999996,99.3660943,99.3660943,,,27.0,1.0,2026-02-07_05h42.18.301,visual_search,2024.1.5,,2026-02-07 05h43.51.340644 +0530,,27_visual_search_2026-02-07_05h42.18.301.csv
white,3.0,1.0,10.0,0.0,99.3660943,,,,,,,,,,,99.29374959999996,99.3660943,0.0495760999999674,99.3660943,99.3660943,106.90865099999996,"[0.9735940000000483, 1.258250099999941, 2.943178900000021, 3.8139187000000447, 7.606552999999963]","[-0.14222222222222222, 0.08333333333333333, -0.085, 0.10611111111111111]","[0.010555555555555556, -0.055, -0.14055555555555554, -0.1922222222222222]","[1, 1, 1, 1]","[0, 0, 0, 0]","[0, 0, 0, 0]","[0.9272833999999648, 2.8966001000000006, 3.766975099999968, 7.559650099999999]","['target_2', 'target_3', 'target_4', 'target_1']",106.90955929999996,106.91934130000004,106.91934130000004,107.9033415,107.98325709999996,107.98325709999996,,,27.0,1.0,2026-02-07_05h42.18.301,visual_search,2024.1.5,,2026-02-07 05h43.51.340644 +0530,,27_visual_search_2026-02-07_05h42.18.301.csv
white,3.0,2.0,11.0,1.0,107.98325709999996,,,,,,,,,,,107.9039067,107.98325709999996,0.0570138000000497,107.98325709999996,107.98325709999996,118.4465116,"[1.8519142000000102, 2.636101900000085, 3.2259125000000495, 6.148164800000018, 10.534710100000098]","[0.09777777777777778, -0.11166666666666666, -0.12666666666666668, 0.2311111111111111, 0.17555555555555555]","[0.12222222222222222, 0.06055555555555556, -0.04888888888888889, 0.10944444444444444, -0.16055555555555556]","[1, 1, 1, 1, 1]","[0, 0, 0, 0, 0]","[0, 0, 0, 0, 0]","[1.798741199999995, 2.582061700000054, 3.171894400000042, 6.094072600000004, 10.480652299999974]","['target_4', 'target_2', 'target_3', 'target_0', 'target_1']",118.44746810000004,118.45598770000004,118.45598770000004,119.44659409999996,119.53871370000002,119.53871370000002,,,27.0,1.0,2026-02-07_05h42.18.301,visual_search,2024.1.5,,2026-02-07 05h43.51.340644 +0530,,27_visual_search_2026-02-07_05h42.18.301.csv
white,4.0,0.0,12.0,0.0,119.53871370000002,,,,,,,,,,,119.44738170000004,119.53871370000002,0.0694562999999561,119.53871370000002,119.53871370000002,125.66006719999996,"[1.1786657999999761, 1.8138113999999632, 2.8282669999999825, 4.180392999999981, 6.210539499999982]","[-0.026111111111111113, -0.12833333333333333, -0.06888888888888889, -0.085, 0.145]","[-0.11944444444444445, -0.1988888888888889, -0.05388888888888889, 0.22555555555555556, -0.1711111111111111]","[1, 1, 1, 1, 1]","[0, 0, 0, 0, 0]","[0, 0, 0, 0, 0]","[1.1123472000000447, 1.747982699999966, 2.7620710999999574, 4.1148620000000165, 6.1444241000000375]","['target_1', 'target_3', 'target_2', 'target_0', 'target_4']",125.6609658,125.66977610000004,125.66977610000004,126.65618829999994,126.75458179999998,126.75458179999998,,,27.0,1.0,2026-02-07_05h42.18.301,visual_search,2024.1.5,,2026-02-07 05h43.51.340644 +0530,,27_visual_search_2026-02-07_05h42.18.301.csv
red,4.0,1.0,13.0,2.0,126.75458179999998,,,,,,,,,,,126.65670739999996,126.75458179999998,0.0698381999999355,126.75458179999998,126.75458179999998,131.08127790000003,"[1.0294983999999658, 1.6831240999999864, 2.2713155000000143, 3.5084211999999297, 4.418297499999994]","[0.022222222222222223, 0.12, 0.21888888888888888, -0.06166666666666667, -0.22944444444444445]","[0.09, 0.13111111111111112, -0.024444444444444446, -0.14, -0.065]","[1, 1, 1, 1, 1]","[0, 0, 0, 0, 0]","[0, 0, 0, 0, 0]","[0.9638439999999946, 1.6168621000000485, 2.460774399999991, 3.442099600000006, 4.351905099999954]","['target_1', 'target_3', 'target_2', 'target_4', 'target_0']",131.08216019999998,131.09120129999997,131.09120129999997,132.0778557,132.15966930000002,132.15966930000002,,,27.0,1.0,2026-02-07_05h42.18.301,visual_search,2024.1.5,,2026-02-07 05h43.51.340644 +0530,,27_visual_search_2026-02-07_05h42.18.301.csv
white,4.0,2.0,14.0,1.0,132.15966930000002,,,,,,,,,,,132.07835009999997,132.15966930000002,0.0546467000000348,132.15966930000002,132.15966930000002,135.9612985,"[0.9801304999999729, 1.3824726000000283, 2.5239917000000105, 3.470014200000037, 3.8771291000000474]","[-0.1527777777777778, -0.23722222222222222, -0.03277777777777778, -0.08055555555555556]","[0.19555555555555557, 0.17833333333333334, -0.028333333333333332, -0.2644444444444444]","[1, 1, 1, 1]","[0, 0, 0, 0]","[0, 0, 0, 0]","[0.9289428999999245, 1.5295086999999512, 2.471927199999982, 3.4184849999999187]","['target_2', 'target_4', 'target_0', 'target_3']",135.96255870000005,135.972938,135.972938,136.96536389999994,,,,,27.0,1.0,2026-02-07_05h42.18.301,visual_search,2024.1.5,,2026-02-07 05h43.51.340644 +0530,,27_visual_search_2026-02-07_05h42.18.301.csv
,,,,,,,,,,,,,,,,,,,,,,,,,,,,,,,,,,,,136.96547650000002,136.98396189999994,,,,,,,,,27_visual_search_2026-02-07_05h42.18.301.csv
,,,,,,,0.0041707000000315,0.0094027000000096,0.0039522999999235,26.629414699999984,0.0183333333333333,0.0022222222222222,1.0,0.0,0.0,,,,,,,,,,,,,,,,,,,,,,,28.0,1.0,2026-02-07_05h49.57.981,visual_search,2024.1.5,,2026-02-07 05h50.23.105241 +0530,,28_visual_search_2026-02-07_05h49.57.981.csv
white,0.0,0.0,0.0,0.0,26.74965710000004,,,,,,,,,,,26.665489500000035,26.74965710000004,0.1019413000000213,26.74965710000004,26.74965710000004,33.13837760000001,"[1.7727247000000261, 3.0689559999999574, 4.253678700000023, 5.383725400000003, 6.5066527999999835]","[0.06, 0.21833333333333332, 0.10722222222222222, -0.12222222222222222, -0.24444444444444444]","[0.23333333333333334, 0.17777777777777778, -0.028888888888888888, -0.04, -0.16833333333333333]","[1, 1, 1, 1, 1]","[0, 0, 0, 0, 0]","[0, 0, 0, 0, 0]","[1.6756580999999642, 2.9726333999999497, 4.156641700000023, 5.286903199999983, 6.410302300000012]","['target_4', 'target_0', 'target_3', 'target_1', 'target_2']",33.139703600000075,33.154845600000044,33.154845600000044,34.139375000000086,34.20752679999998,34.20752679999998,,,28.0,1.0,2026-02-07_05h49.57.981,visual_search,2024.1.5,,2026-02-07 05h50.23.105241 +0530,,28_visual_search_2026-02-07_05h49.57.981.csv
red,0.0,1.0,1.0,2.0,34.20752679999998,,,,,,,,,,,34.139897500000075,34.20752679999998,0.0516228999999839,34.20752679999998,34.20752679999998,39.28374080000003,"[1.2770543000000316, 2.3233132999999953, 3.391667499999926, 4.433202599999959, 5.14184309999996]","[-0.05, 0.085, 0.16055555555555556, -0.20222222222222222, -0.2011111111111111]","[-0.10944444444444444, 0.07777777777777778, -0.10444444444444445, -0.013333333333333334, -0.12277777777777778]","[1, 1, 1, 1, 1]","[0, 0, 0, 0, 0]","[0, 0, 0, 0, 0]","[1.2286560000000009, 2.274007299999994, 3.342803799999956, 4.384322699999984, 5.092745300000047]","['target_4', 'target_1', 'target_0', 'target_3', 'target_2']",39.28436420000003,39.29114679999998,39.29114679999998,40.28301220000003,40.37152939999999,40.37152939999999,,,28.0,1.0,2026-02-07_05h49.57.981,visual_search,2024.1.5,,2026-02-07 05h50.23.105241 +0530,,28_visual_search_2026-02-07_05h49.57.981.csv
white,0.0,2.0,2.0,1.0,40.37152939999999,,,,,,,,,,,40.28349130000004,40.37152939999999,0.0667317999999568,40.37152939999999,40.37152939999999,47.05871569999999,"[1.718456500000002, 2.573459699999944, 3.7675318999999945, 5.03233750000004, 6.772235000000023]","[0.08722222222222223, 0.18055555555555555, -0.15944444444444444, -0.057777777777777775, 0.22611111111111112]","[0.22277777777777777, 0.16777777777777778, 0.02277777777777778, -0.1388888888888889, -0.17277777777777778]","[1, 1, 1, 1, 1]","[0, 0, 0, 0, 0]","[0, 0, 0, 0, 0]","[1.6582392000000254, 2.5124239000000443, 3.7075104000000465, 4.971838200000093, 6.711817400000086]","['target_4', 'target_2', 'target_1', 'target_0', 'target_3']",47.05957220000005,47.067830500000014,47.067830500000014,48.06014800000003,48.150279100000034,48.150279100000034,,,28.0,1.0,2026-02-07_05h49.57.981,visual_search,2024.1.5,,2026-02-07 05h50.23.105241 +0530,,28_visual_search_2026-02-07_05h49.57.981.csv
white,1.0,0.0,3.0,0.0,48.150279100000034,,,,,,,,,,,48.060779600000046,48.150279100000034,0.0734096999999565,48.150279100000034,48.150279100000034,54.19485780000002,"[1.7587852999999996, 2.9073549999999386, 4.000073099999895, 5.037726899999939, 6.133126999999945]","[-0.13555555555555557, 0.013888888888888888, -0.09777777777777778, -0.07111111111111111, 0.19944444444444445]","[0.08555555555555555, 0.0811111111111111, -0.11, -0.2311111111111111, -0.15777777777777777]","[1, 1, 1, 1, 1]","[0, 0, 0, 0, 0]","[0, 0, 0, 0, 0]","[1.6909703000000036, 2.838963100000001, 3.9315054999999575, 4.969946400000026, 6.064536500000031]","['target_2', 'target_0', 'target_3', 'target_1', 'target_4']",54.195830200000046,54.205071100000055,54.205071100000055,55.19193340000004,55.286720100000025,55.286720100000025,,,28.0,1.0,2026-02-07_05h49.57.981,visual_search,2024.1.5,,2026-02-07 05h50.23.105241 +0530,,28_visual_search_2026-02-07_05h49.57.981.csv
red,1.0,1.0,4.0,2.0,55.286720100000025,,,,,,,,,,,55.192411600000014,55.286720100000025,0.0672051000000237,55.286720100000025,55.286720100000025,60.58310920000008,"[1.6936933000000636, 2.516857200000004, 3.3656537000000526, 4.348602600000049, 5.385436600000048]","[0.115, -0.006111111111111111, 0.042222222222222223, 0.13111111111111112, 0.09277777777777778]","[0.2561111111111111, 0.1811111111111111, 0.0044444444444444444, -0.03277777777777778, -0.24888888888888888]","[1, 1, 1, 1, 1]","[0, 0, 0, 0, 0]","[0, 0, 0, 0, 0]","[1.6334712000000309, 2.4555295000000115, 3.304164499999956, 4.287190200000055, 5.323896099999956]","['target_4', 'target_3', 'target_0', 'target_2', 'target_1']",60.584250699999984,60.59286400000008,60.59286400000008,61.58027860000004,61.66623700000002,61.66623700000002,,,28.0,1.0,2026-02-07_05h49.57.981,visual_search,2024.1.5,,2026-02-07 05h50.23.105241 +0530,,28_visual_search_2026-02-07_05h49.57.981.csv
white,1.0,2.0,5.0,1.0,61.66623700000002,,,,,,,,,,,61.580896800000005,61.66623700000002,0.0623679000000265,61.66623700000002,61.66623700000002,67.77216759999999,"[2.1214297000000215, 3.1299507999999605, 4.175183500000003, 5.127094100000022, 6.1858532999999625]","[0.235, -0.13444444444444445, -0.08611111111111111, -0.22944444444444445, 0.08333333333333333]","[0.15055555555555555, 0.2411111111111111, -0.013888888888888888, -0.22722222222222221, -0.13555555555555557]","[1, 1, 1, 1, 1]","[0, 0, 0, 0, 0]","[0, 0, 0, 0, 0]","[2.062118299999952, 3.0708664999999655, 4.115168099999892, 5.067090199999939, 6.126673699999969]","['target_0', 'target_4', 'target_2', 'target_1', 'target_3']",67.77294370000004,67.78096170000003,67.78096170000003,68.76774490000003,68.83469839999998,68.83469839999998,,,28.0,1.0,2026-02-07_05h49.57.981,visual_search,2024.1.5,,2026-02-07 05h50.23.105241 +0530,,28_visual_search_2026-02-07_05h49.57.981.csv
white,2.0,0.0,6.0,0.0,68.83469839999998,,,,,,,,,,,68.76812940000002,68.83469839999998,0.0456075999999256,68.83469839999998,68.83469839999998,75.82957340000007,"[1.5219650000000229, 2.9411815999999362, 5.037797599999976, 6.089281299999925, 7.054694499999982]","[0.18055555555555555, -0.22, -0.23666666666666666, -0.016666666666666666, 0.23666666666666666]","[0.14888888888888888, 0.10277777777777777, -0.16722222222222222, -0.20444444444444446, -0.24055555555555555]","[1, 1, 1, 1, 1]","[0, 0, 0, 0, 0]","[0, 0, 0, 0, 0]","[1.481096999999977, 2.899317999999994, 4.996241400000031, 6.047943499999974, 7.013043300000049]","['target_2', 'target_4', 'target_3', 'target_0', 'target_1']",75.83046100000001,75.83840780000003,75.83840780000003,76.82186339999998,76.91217519999998,76.91217519999998,,,28.0,1.0,2026-02-07_05h49.57.981,visual_search,2024.1.5,,2026-02-07 05h50.23.105241 +0530,,28_visual_search_2026-02-07_05h49.57.981.csv
white,2.0,1.0,7.0,1.0,76.91217519999998,,,,,,,,,,,76.8223845,76.91217519999998,0.0595590000000356,76.91217519999998,76.91217519999998,81.6273602,"[1.7400508000000627, 2.614924599999995, 3.49014800000009, 4.4267929000000095, 4.794725500000027]","[-0.15333333333333332, 0.16111111111111112, 0.09055555555555556, -0.0044444444444444444]","[0.22944444444444445, 0.18833333333333332, 0.058333333333333334, -0.09444444444444444]","[1, 1, 1, 1]","[0, 0, 0, 0]","[0, 0, 0, 0]","[1.686633000000029, 2.5616026000000147, 3.4361580000000913, 4.37261680000006]","['target_1', 'target_0', 'target_4', 'target_3']",81.62821080000003,81.63772640000002,81.63772640000002,82.62175150000007,82.70764760000009,82.70764760000009,,,28.0,1.0,2026-02-07_05h49.57.981,visual_search,2024.1.5,,2026-02-07 05h50.23.105241 +0530,,28_visual_search_2026-02-07_05h49.57.981.csv
red,2.0,2.0,8.0,2.0,82.70764760000009,,,,,,,,,,,82.62242120000008,82.70764760000009,0.0565102000000479,82.70764760000009,82.70764760000009,87.93953970000007,"[2.0074419000000034, 2.9855631000000358, 3.767516799999953, 4.474831399999971, 5.309627100000057]","[0.06777777777777778, -0.07277777777777777, -0.14333333333333334, -0.057777777777777775, 0.04]","[0.155, 0.15055555555555555, -0.011666666666666667, -0.11611111111111111, -0.23666666666666666]","[1, 1, 1, 1, 1]","[0, 0, 0, 0, 0]","[0, 0, 0, 0, 0]","[1.9574063000000024, 2.934626499999922, 3.7165301, 4.4258051999999, 5.259076299999947]","['target_4', 'target_1', 'target_3', 'target_2', 'target_0']",87.94004050000001,87.94685980000008,87.94685980000008,88.93141710000009,89.0016306,89.0016306,,,28.0,1.0,2026-02-07_05h49.57.981,visual_search,2024.1.5,,2026-02-07 05h50.23.105241 +0530,,28_visual_search_2026-02-07_05h49.57.981.csv
white,3.0,0.0,9.0,0.0,89.0016306,,,,,,,,,,,88.93175370000006,89.0016306,0.0458648000000039,89.0016306,89.0016306,94.91056360000005,"[1.4054044000000658, 2.2175966000000926, 2.9353991000000406, 4.577087900000038, 5.967898500000047]","[0.12944444444444445, -0.05722222222222222, -0.16722222222222222, 0.25222222222222224, 0.15555555555555556]","[0.11055555555555556, -0.0005555555555555556, 0.08611111111111111, -0.2594444444444444, -0.1661111111111111]","[1, 1, 1, 1, 1]","[0, 0, 0, 0, 0]","[0, 0, 0, 0, 0]","[1.363017099999979, 2.1762701999999763, 2.894103599999994, 4.535139999999956, 5.926279199999954]","['target_4', 'target_0', 'target_1', 'target_2', 'target_3']",94.91149289999998,94.92113340000004,94.92113340000004,95.90866090000009,95.98404190000008,95.98404190000008,,,28.0,1.0,2026-02-07_05h49.57.981,visual_search,2024.1.5,,2026-02-07 05h50.23.105241 +0530,,28_visual_search_2026-02-07_05h49.57.981.csv
red,3.0,1.0,10.0,2.0,95.98404190000008,,,,,,,,,,,95.9090873,95.98404190000008,0.0569049000000632,95.98404190000008,95.98404190000008,100.09999790000006,"[1.3037361000000374, 1.6544075000000475, 2.707702100000006, 3.1110319000000572, 4.185837700000093]","[0.15888888888888889, 0.105, 0.016666666666666666, -0.050555555555555555, -0.09444444444444444]","[-0.04888888888888889, 0.023333333333333334, -0.04055555555555555, -0.06388888888888888, 0.04611111111111111]","[1, 1, 1, 1, 1]","[0, 0, 0, 0, 0]","[0, 0, 0, 0, 0]","[1.2495314999999891, 1.9196150000000216, 2.653701700000056, 3.3464832000000797, 4.1320312000000285]","['target_1', 'target_0', 'target_2', 'target_3', 'target_4']",100.1010946,100.11007040000004,100.11007040000004,101.09612400000005,101.15453790000004,101.15453790000004,,,28.0,1.0,2026-02-07_05h49.57.981,visual_search,2024.1.5,,2026-02-07 05h50.23.105241 +0530,,28_visual_search_2026-02-07_05h49.57.981.csv
white,3.0,2.0,11.0,1.0,101.15453790000004,,,,,,,,,,,101.09632410000006,101.15453790000004,0.0373960000000579,101.15453790000004,101.15453790000004,106.45778890000008,"[1.655894000000103, 2.3595080000000053, 3.1038333000000193, 4.456069900000102, 5.354139099999998]","[-0.21, -0.13555555555555557, -0.019444444444444445, 0.205, 0.09]","[0.11, 0.10388888888888889, 0.04722222222222222, -0.028333333333333332, -0.11722222222222223]","[1, 1, 1, 1, 1]","[0, 0, 0, 0, 0]","[0, 0, 0, 0, 0]","[1.6217832000000953, 2.325011800000084, 3.0688568000000487, 4.421102200000064, 5.319724800000017]","['target_4', 'target_3', 'target_2', 'target_1', 'target_0']",106.4587355,106.46809790000007,106.46809790000007,107.45112660000008,107.51350560000004,107.51350560000004,,,28.0,1.0,2026-02-07_05h49.57.981,visual_search,2024.1.5,,2026-02-07 05h50.23.105241 +0530,,28_visual_search_2026-02-07_05h49.57.981.csv
white,4.0,0.0,12.0,1.0,107.51350560000004,,,,,,,,,,,107.45134410000004,107.51350560000004,0.0395290000000159,107.51350560000004,107.51350560000004,115.6027328,"[1.5533631999999216, 2.9600537999999688, 4.323193599999968, 7.374913499999934, 8.142214699999954]","[-0.18055555555555555, 0.23333333333333334, 0.22333333333333333, -0.24888888888888888, -0.09833333333333333]","[0.1272222222222222, 0.16666666666666666, -0.030555555555555555, -0.14222222222222222, -0.1922222222222222]","[1, 1, 1, 1, 1]","[0, 0, 0, 0, 0]","[0, 0, 0, 0, 0]","[1.5176763999999139, 3.2072059999999283, 4.285821199999987, 7.33876639999994, 8.105339399999934]","['target_2', 'target_3', 'target_1', 'target_0', 'target_4']",115.6033883,115.61075140000004,115.61075140000004,116.594744,116.67333660000008,116.67333660000008,,,28.0,1.0,2026-02-07_05h49.57.981,visual_search,2024.1.5,,2026-02-07 05h50.23.105241 +0530,,28_visual_search_2026-02-07_05h49.57.981.csv
red,4.0,1.0,13.0,2.0,116.67333660000008,,,,,,,,,,,116.5954114,116.67333660000008,0.0501778999999942,116.67333660000008,116.67333660000008,122.94613230000004,"[1.499874400000067, 2.533280399999967, 3.3501733000000513, 4.931877800000052, 6.340375300000005]","[0.06333333333333334, 0.21777777777777776, 0.16833333333333333, -0.1738888888888889, -0.14]","[0.225, 0.14944444444444444, 0.051111111111111114, 0.07111111111111111, -0.1361111111111111]","[1, 1, 1, 1, 1]","[0, 0, 0, 0, 0]","[0, 0, 0, 0, 0]","[1.4536166000000321, 2.486751400000003, 3.3033735999999863, 4.884754300000054, 6.293674600000031]","['target_1', 'target_3', 'target_0', 'target_2', 'target_4']",122.94703790000004,122.9561824,122.9561824,123.94859150000002,,,,,28.0,1.0,2026-02-07_05h49.57.981,visual_search,2024.1.5,,2026-02-07 05h50.23.105241 +0530,,28_visual_search_2026-02-07_05h49.57.981.csv
white,4.0,2.0,14.0,0.0,124.03509210000004,,,,,,,,,,,123.9491193,124.03509210000004,0.0658273000000235,124.03509210000004,124.03509210000004,132.5931332,"[1.9171022000000448, 3.197645800000032, 4.324296900000036, 5.354009800000085, 8.643738400000075]","[0.1827777777777778, -0.06166666666666667, 0.11333333333333333, -0.03277777777777778, 0.1761111111111111]","[0.235, 0.17722222222222223, -0.01888888888888889, -0.058333333333333334, 0.07944444444444444]","[1, 1, 1, 1, 1]","[0, 0, 0, 0, 0]","[0, 0, 0, 0, 0]","[1.8553455999999642, 3.136053400000037, 4.262373599999933, 5.291873799999962, 8.582117899999957]","['target_3', 'target_4', 'target_1', 'target_2', 'target_0']",132.59403110000005,132.60352950000004,132.60352950000004,133.59251849999998,133.61096759999998,133.61096759999998,,,28.0,1.0,2026-02-07_05h49.57.981,visual_search,2024.1.5,,2026-02-07 05h50.23.105241 +0530,,28_visual_search_2026-02-07_05h49.57.981.csv
,,,,,,,,,,,,,,,,,,,,,,,,,,,,,,,,,,,,133.5926532000001,133.61096759999998,,,,,,,,,28_visual_search_2026-02-07_05h49.57.981.csv
,,,,,,,0.0176506999998764,0.0237815000000409,0.0173142000001007,46.58785949999992,-0.0838888888888888,0.2033333333333333,1.0,0.0,0.0,,,,,,,,,,,,,,,,,,,,,,,29.0,1.0,2026-02-07_05h58.57.667,visual_search,2024.1.5,,2026-02-07 05h59.40.215232 +0530,,29_visual_search_2026-02-07_05h58.57.667.csv
white,0.0,0.0,0.0,1.0,46.68719050000004,,,,,,,,,,,46.59857540000007,46.68719050000004,0.0733083000000078,46.68719050000004,46.68719050000004,53.04032989999996,"[2.00134839999987, 3.0501996000000418, 4.046462600000041, 5.120433699999921, 6.4493872999998985]","[-0.22944444444444445, -0.24166666666666667, 0.010555555555555556, 0.010555555555555556, 0.09555555555555556]","[0.13833333333333334, -0.012777777777777779, -0.010555555555555556, -0.2427777777777778, -0.02388888888888889]","[1, 1, 1, 1, 1]","[0, 0, 0, 0, 0]","[0, 0, 0, 0, 0]","[1.935461900000064, 2.984422900000027, 3.9806109999999535, 5.054523100000097, 6.383533800000123]","['target_2', 'target_3', 'target_0', 'target_1', 'target_4']",53.04199059999996,53.05854320000003,53.05854320000003,54.044681099999934,,,,,29.0,1.0,2026-02-07_05h58.57.667,visual_search,2024.1.5,,2026-02-07 05h59.40.215232 +0530,,29_visual_search_2026-02-07_05h58.57.667.csv
