target_col,thisN,thisTrialN,thisRepN,mouse.x,mouse.y,mouse.leftButton,mouse.midButton,mouse.rightButton,mouse.time,mouse.clicked_name,trials.thisRepN,trials.thisTrialN,trials.thisN,trials.thisIndex,thisRow.t,notes,instructions.started,instrTxt.started,startMouse.started,instructions.stopped,startMouse.x,startMouse.y,startMouse.leftButton,startMouse.midButton,startMouse.rightButton,trial.started,square.started,mouse.started,trial_counter.started,target.started,instruct.started,trial.stopped,trials.mouse.x,trials.mouse.y,trials.mouse.leftButton,trials.mouse.midButton,trials.mouse.rightButton,trials.mouse.time,trials.mouse.clicked_name,feedback.started,fb.started,trial_counter_2.started,feedback.stopped,fb.stopped,trial_counter_2.stopped,thanks.started,endMsg.started,participant,session,date,expName,expVersion,psychopyVersion,frameRate,expStart,Unnamed: 56,source_file,thanks.stopped,Unnamed: 46,Unnamed: 44,Unnamed: 54
,,,,,,,,,,,,,,,,,0.003455600000052,0.0078561999998783,0.0030874999993102,16.530548099999578,0.0338888888888888,-0.1716666666666666,1.0,0.0,0.0,,,,,,,,,,,,,,,,,,,,,,,10.0,1.0,2026-02-04_09h40.03.955,visual_search,,2025.2.4,59.860345813196105,2026-02-04 09h40.04.124925 +0530,,10_visual_search_2026-02-04_09h39.54.454.csv,,,,
red,0.0,0.0,0.0,[-0.135],[0.09],[1],[0],[0],[2.628650800000287],"['target', 'target']",0.0,0.0,0.0,2.0,16.595216400000027,,,,,,,,,,,16.582519099999445,16.595216400000027,0.0517001999996864,16.595216400000027,16.595216400000027,16.595216400000027,19.212353599999915,[-0.135],[0.09],[1],[0],[0],[2.628650800000287],"['target', 'target']",19.227840300000025,19.233368999999584,19.233368999999584,20.2272395,,,,,10.0,1.0,2026-02-04_09h40.03.955,visual_search,,2025.2.4,59.860345813196105,2026-02-04 09h40.04.124925 +0530,,10_visual_search_2026-02-04_09h39.54.454.csv,,,,
white,1.0,1.0,0.0,[-0.18333333333333332],[0.16444444444444445],[1],[0],[0],[1.5916637999998784],"['target', 'target']",0.0,1.0,1.0,1.0,20.284660899999835,,,,,,,,,,,20.269587699999647,20.284660899999835,0.0569310000000768,20.284660899999835,20.284660899999835,20.284660899999835,21.862275899999982,[-0.18333333333333332],[0.16444444444444445],[1],[0],[0],[1.5916637999998784],"['target', 'target']",21.8742542,21.87853779999932,21.87853779999932,22.87810379999973,,,,,10.0,1.0,2026-02-04_09h40.03.955,visual_search,,2025.2.4,59.860345813196105,2026-02-04 09h40.04.124925 +0530,,10_visual_search_2026-02-04_09h39.54.454.csv,,,,
white,2.0,2.0,0.0,[0.01888888888888889],[-0.09666666666666666],[1],[0],[0],[1.7272648999996818],"['target', 'target']",0.0,2.0,2.0,0.0,22.929591699999943,,,,,,,,,,,22.91800259999945,22.929591699999943,0.0555099000002883,22.929591699999943,22.929591699999943,22.929591699999943,24.646170699999857,[0.01888888888888889],[-0.09666666666666666],[1],[0],[0],[1.7272648999996818],"['target', 'target']",24.65955159999976,24.66487739999957,24.66487739999957,25.662704499999563,,,,,10.0,1.0,2026-02-04_09h40.03.955,visual_search,,2025.2.4,59.860345813196105,2026-02-04 09h40.04.124925 +0530,,10_visual_search_2026-02-04_09h39.54.454.csv,,,,
white,3.0,0.0,1.0,[-0.03166666666666667],[-0.15333333333333332],[1],[0],[0],[1.38530769999943],"['target', 'target']",1.0,0.0,3.0,1.0,25.72869659999924,,,,,,,,,,,25.713460299999497,25.72869659999924,0.0670727999995506,25.72869659999924,25.72869659999924,25.72869659999924,27.10005699999965,[-0.03166666666666667],[-0.15333333333333332],[1],[0],[0],[1.38530769999943],"['target', 'target']",27.10889689999931,27.11440219999986,27.11440219999986,28.11253089999991,,,,,10.0,1.0,2026-02-04_09h40.03.955,visual_search,,2025.2.4,59.860345813196105,2026-02-04 09h40.04.124925 +0530,,10_visual_search_2026-02-04_09h39.54.454.csv,,,,
white,4.0,1.0,1.0,[-0.13277777777777777],[-0.13555555555555557],[1],[0],[0],[1.3860214000005726],"['target', 'target']",1.0,1.0,4.0,0.0,28.158672999999908,,,,,,,,,,,28.1468376999992,28.158672999999908,0.0463185999997222,28.158672999999908,28.158672999999908,28.158672999999908,29.5337514999992,[-0.13277777777777777],[-0.13555555555555557],[1],[0],[0],[1.3860214000005726],"['target', 'target']",29.542212899999868,29.547474499999225,29.547474499999225,30.54763920000005,,,,,10.0,1.0,2026-02-04_09h40.03.955,visual_search,,2025.2.4,59.860345813196105,2026-02-04 09h40.04.124925 +0530,,10_visual_search_2026-02-04_09h39.54.454.csv,,,,
red,5.0,2.0,1.0,[-0.07388888888888889],[0.24222222222222223],[1],[0],[0],[1.588337799999863],"['target', 'target']",1.0,2.0,5.0,2.0,30.60719649999919,,,,,,,,,,,30.593145599999843,30.60719649999919,0.0589454000000841,30.60719649999919,30.60719649999919,30.60719649999919,32.18251479999981,[-0.07388888888888889],[0.24222222222222223],[1],[0],[0],[1.588337799999863],"['target', 'target']",32.192803099999765,32.197364099999504,32.197364099999504,33.1823732999992,33.23163989999921,33.23163989999921,,,10.0,1.0,2026-02-04_09h40.03.955,visual_search,,2025.2.4,59.860345813196105,2026-02-04 09h40.04.124925 +0530,,10_visual_search_2026-02-04_09h39.54.454.csv,,,,
red,6.0,0.0,2.0,[0.024444444444444446],[0.21611111111111111],[1],[0],[0],[1.0961889000000156],"['target', 'target']",2.0,0.0,6.0,2.0,33.23163989999921,,,,,,,,,,,33.21956729999965,33.23163989999921,0.0368236000003889,33.23163989999921,33.23163989999921,33.23163989999921,34.316459899999245,[0.024444444444444446],[0.21611111111111111],[1],[0],[0],[1.0961889000000156],"['target', 'target']",34.325077199999214,34.33080239999981,34.33080239999981,35.31794109999919,35.368098899999495,35.368098899999495,,,10.0,1.0,2026-02-04_09h40.03.955,visual_search,,2025.2.4,59.860345813196105,2026-02-04 09h40.04.124925 +0530,,10_visual_search_2026-02-04_09h39.54.454.csv,,,,
white,7.0,1.0,2.0,[-0.205],[0.20166666666666666],[1],[0],[0],[1.32670490000055],"['target', 'target']",2.0,1.0,7.0,1.0,35.368098899999495,,,,,,,,,,,35.3563596999993,35.368098899999495,0.0396093999997901,35.368098899999495,35.368098899999495,35.368098899999495,36.68392769999991,[-0.205],[0.20166666666666666],[1],[0],[0],[1.32670490000055],"['target', 'target']",36.69298189999972,36.698896500000046,36.698896500000046,37.68447389999983,37.74280980000003,37.74280980000003,,,10.0,1.0,2026-02-04_09h40.03.955,visual_search,,2025.2.4,59.860345813196105,2026-02-04 09h40.04.124925 +0530,,10_visual_search_2026-02-04_09h39.54.454.csv,,,,
white,8.0,2.0,2.0,[0.17666666666666667],[-0.06944444444444445],[1],[0],[0],[1.6365849000003436],"['target', 'target']",2.0,2.0,8.0,0.0,37.74280980000003,,,,,,,,,,,37.73091309999927,37.74280980000003,0.0467597999995632,37.74280980000003,37.74280980000003,37.74280980000003,39.3685803999997,[0.17666666666666667],[-0.06944444444444445],[1],[0],[0],[1.6365849000003436],"['target', 'target']",39.37846029999946,39.38449499999933,39.38449499999933,40.38371000000007,,,,,10.0,1.0,2026-02-04_09h40.03.955,visual_search,,2025.2.4,59.860345813196105,2026-02-04 09h40.04.124925 +0530,,10_visual_search_2026-02-04_09h39.54.454.csv,,,,
red,9.0,0.0,3.0,[-0.11833333333333333],[0.12],[1],[0],[0],[1.1755370000000767],"['target', 'target']",3.0,0.0,9.0,2.0,40.438737099999344,,,,,,,,,,,40.42571119999957,40.438737099999344,0.05688310000005,40.438737099999344,40.438737099999344,40.438737099999344,41.60220069999923,[-0.11833333333333333],[0.12],[1],[0],[0],[1.1755370000000767],"['target', 'target']",41.61039660000006,41.6164762999997,41.6164762999997,42.60304079999969,42.66243339999983,42.66243339999983,,,10.0,1.0,2026-02-04_09h40.03.955,visual_search,,2025.2.4,59.860345813196105,2026-02-04 09h40.04.124925 +0530,,10_visual_search_2026-02-04_09h39.54.454.csv,,,,
white,10.0,1.0,3.0,[0.0811111111111111],[-0.042222222222222223],[1],[0],[0],[1.1358372999993662],"['target', 'target']",3.0,1.0,10.0,0.0,42.66243339999983,,,,,,,,,,,42.65158840000004,42.66243339999983,0.0491900999995778,42.66243339999983,42.66243339999983,42.66243339999983,43.7883554,[0.0811111111111111],[-0.042222222222222223],[1],[0],[0],[1.1358372999993662],"['target', 'target']",43.79736289999983,43.80321089999961,43.80321089999961,44.8019703,,,,,10.0,1.0,2026-02-04_09h40.03.955,visual_search,,2025.2.4,59.860345813196105,2026-02-04 09h40.04.124925 +0530,,10_visual_search_2026-02-04_09h39.54.454.csv,,,,
white,11.0,2.0,3.0,[-0.10222222222222223],[0.041666666666666664],[1],[0],[0],[1.2468189000001075],"['target', 'target']",3.0,2.0,11.0,1.0,44.85131060000003,,,,,,,,,,,44.83946789999936,44.85131060000003,0.0508229999995819,44.85131060000003,44.85131060000003,44.85131060000003,46.08727259999978,[-0.10222222222222223],[0.041666666666666664],[1],[0],[0],[1.2468189000001075],"['target', 'target']",46.096384299999954,46.10179019999941,46.10179019999941,47.08614689999922,47.1356452,47.1356452,,,10.0,1.0,2026-02-04_09h40.03.955,visual_search,,2025.2.4,59.860345813196105,2026-02-04 09h40.04.124925 +0530,,10_visual_search_2026-02-04_09h39.54.454.csv,,,,
white,12.0,0.0,4.0,[0.021666666666666667],[0.22333333333333333],[1],[0],[0],[1.2815300000002026],"['target', 'target']",4.0,0.0,12.0,1.0,47.1356452,,,,,,,,,,,47.12348989999919,47.1356452,0.0359692000001814,47.1356452,47.1356452,47.1356452,48.40603589999955,[0.021666666666666667],[0.22333333333333333],[1],[0],[0],[1.2815300000002026],"['target', 'target']",48.417863199999374,48.42467570000008,48.42467570000008,49.41956969999956,,,,,10.0,1.0,2026-02-04_09h40.03.955,visual_search,,2025.2.4,59.860345813196105,2026-02-04 09h40.04.124925 +0530,,10_visual_search_2026-02-04_09h39.54.454.csv,,,,
white,13.0,1.0,4.0,[-0.13833333333333334],[0.115],[1],[0],[0],[1.166939700000512],"['target', 'target']",4.0,1.0,13.0,0.0,49.46719679999933,,,,,,,,,,,49.45564419999937,49.46719679999933,0.0493078999998033,49.46719679999933,49.46719679999933,49.46719679999933,50.62346569999954,[-0.13833333333333334],[0.115],[1],[0],[0],[1.166939700000512],"['target', 'target']",50.63199899999927,50.63777639999989,50.63777639999989,51.622451599999295,51.68001469999945,51.68001469999945,,,10.0,1.0,2026-02-04_09h40.03.955,visual_search,,2025.2.4,59.860345813196105,2026-02-04 09h40.04.124925 +0530,,10_visual_search_2026-02-04_09h39.54.454.csv,,,,
red,14.0,2.0,4.0,[-0.09],[-0.03944444444444444],[1],[0],[0],[1.076217099999667],"['target', 'target']",4.0,2.0,14.0,2.0,51.68001469999945,,,,,,,,,,,51.66434509999999,51.68001469999945,0.0406376999999338,51.68001469999945,51.68001469999945,51.68001469999945,52.74166679999962,[-0.09],[-0.03944444444444444],[1],[0],[0],[1.076217099999667],"['target', 'target']",52.74992369999927,52.75516769999922,52.75516769999922,53.73901380000007,53.754250499999216,53.754250499999216,,,10.0,1.0,2026-02-04_09h40.03.955,visual_search,,2025.2.4,59.860345813196105,2026-02-04 09h40.04.124925 +0530,,10_visual_search_2026-02-04_09h39.54.454.csv,,,,
,,,,,,,,,,,,,,,,,,,,,,,,,,,,,,,,,,,,,,,,,,,,,,53.745033899999726,53.754250499999216,,,,,,,,,,10_visual_search_2026-02-04_09h39.54.454.csv,,,,
,,,,,,,,,,,,,,,,,0.0034316999999646,0.0078563999995822,0.003111600000011,4.790109099999427,0.0722222222222222,-0.2755555555555555,1.0,0.0,0.0,,,,,,,,,,,,,,,,,,,,,,,11.0,1.0,2026-02-04_09h58.44.739,visual_search,,2025.2.4,59.96001865952517,2026-02-04 09h58.44.853571 +0530,,11_visual_search_2026-02-04_09h58.33.857.csv,,,,
white,0.0,0.0,0.0,[-0.18444444444444444],[0.12166666666666667],[1],[0],[0],[1.5846288999991884],"['target', 'target']",0.0,0.0,0.0,0.0,4.852898499999355,,,,,,,,,,,4.83890159999919,4.852898499999355,0.048612999999932,4.852898499999355,4.852898499999355,4.852898499999355,6.424601299999267,[-0.18444444444444444],[0.12166666666666667],[1],[0],[0],[1.5846288999991884],"['target', 'target']",6.439975599999343,6.4457635999997365,6.4457635999997365,7.439272399999936,,,,,11.0,1.0,2026-02-04_09h58.44.739,visual_search,,2025.2.4,59.96001865952517,2026-02-04 09h58.44.853571 +0530,,11_visual_search_2026-02-04_09h58.33.857.csv,,,,
white,1.0,1.0,0.0,[-0.06888888888888889],[0.1922222222222222],[1],[0],[0],[1.4616648000001078],"['target', 'target']",0.0,1.0,1.0,1.0,7.491826799999217,,,,,,,,,,,7.479788599999665,7.491826799999217,0.0548735000002125,7.491826799999217,7.491826799999217,7.491826799999217,8.94235739999931,[-0.06888888888888889],[0.1922222222222222],[1],[0],[0],[1.4616648000001078],"['target', 'target']",8.954632599999968,8.95942179999929,8.95942179999929,9.956969599999866,,,,,11.0,1.0,2026-02-04_09h58.44.739,visual_search,,2025.2.4,59.96001865952517,2026-02-04 09h58.44.853571 +0530,,11_visual_search_2026-02-04_09h58.33.857.csv,,,,
red,2.0,2.0,0.0,[0.20055555555555554],[-0.10055555555555555],[1],[0],[0],[1.544093200000134],"['target', 'target']",0.0,2.0,2.0,2.0,10.012433999999304,,,,,,,,,,,10.000440199999504,10.012433999999304,0.0578688000005058,10.012433999999304,10.012433999999304,10.012433999999304,11.545660899999348,[0.20055555555555554],[-0.10055555555555555],[1],[0],[0],[1.544093200000134],"['target', 'target']",11.56308849999914,11.567637699999976,11.567637699999976,12.558807499999602,,,,,11.0,1.0,2026-02-04_09h58.44.739,visual_search,,2025.2.4,59.96001865952517,2026-02-04 09h58.44.853571 +0530,,11_visual_search_2026-02-04_09h58.33.857.csv,,,,
white,3.0,0.0,1.0,[-0.15333333333333332],[0.18666666666666668],[1],[0],[0],[1.3933900000001813],"['target', 'target']",1.0,0.0,3.0,0.0,12.611474299999829,,,,,,,,,,,12.598708299999998,12.611474299999829,0.0526945000001433,12.611474299999829,12.611474299999829,12.611474299999829,13.993891099999928,[-0.15333333333333332],[0.18666666666666668],[1],[0],[0],[1.3933900000001813],"['target', 'target']",14.00416309999946,14.008562399999391,14.008562399999391,14.993991199999982,15.05086239999946,15.05086239999946,,,11.0,1.0,2026-02-04_09h58.44.739,visual_search,,2025.2.4,59.96001865952517,2026-02-04 09h58.44.853571 +0530,,11_visual_search_2026-02-04_09h58.33.857.csv,,,,
white,4.0,1.0,1.0,[-0.0044444444444444444],[0.10111111111111111],[1],[0],[0],[1.2903355999997075],"['target', 'target']",1.0,1.0,4.0,1.0,15.05086239999946,,,,,,,,,,,15.03890339999998,15.05086239999946,0.044666199999483,15.05086239999946,15.05086239999946,15.05086239999946,16.33023669999966,[-0.0044444444444444444],[0.10111111111111111],[1],[0],[0],[1.2903355999997075],"['target', 'target']",16.339706699999624,16.34500449999996,16.34500449999996,17.34325439999975,,,,,11.0,1.0,2026-02-04_09h58.44.739,visual_search,,2025.2.4,59.96001865952517,2026-02-04 09h58.44.853571 +0530,,11_visual_search_2026-02-04_09h58.33.857.csv,,,,
red,5.0,2.0,1.0,[-0.11944444444444445],[-0.08333333333333333],[1],[0],[0],[1.5687041999999565],"['target', 'target']",1.0,2.0,5.0,2.0,17.404787799999212,,,,,,,,,,,17.392580599999746,17.404787799999212,0.0621292000005269,17.404787799999212,17.404787799999212,17.404787799999212,18.962289099999907,[-0.11944444444444445],[-0.08333333333333333],[1],[0],[0],[1.5687041999999565],"['target', 'target']",18.97176939999917,18.97765369999979,18.97765369999979,19.96323769999981,20.018446799999765,20.018446799999765,,,11.0,1.0,2026-02-04_09h58.44.739,visual_search,,2025.2.4,59.96001865952517,2026-02-04 09h58.44.853571 +0530,,11_visual_search_2026-02-04_09h58.33.857.csv,,,,
red,6.0,0.0,2.0,[0.03722222222222222],[0.042777777777777776],[1],[0],[0],[1.3384476000001087],"['target', 'target']",2.0,0.0,6.0,2.0,20.018446799999765,,,,,,,,,,,20.00603129999945,20.018446799999765,0.0434371000001192,20.018446799999765,20.018446799999765,20.018446799999765,21.345534000000043,[0.03722222222222222],[0.042777777777777776],[1],[0],[0],[1.3384476000001087],"['target', 'target']",21.353827299999462,21.359982499999205,21.359982499999205,22.34661379999943,22.40735129999939,22.40735129999939,,,11.0,1.0,2026-02-04_09h58.44.739,visual_search,,2025.2.4,59.96001865952517,2026-02-04 09h58.44.853571 +0530,,11_visual_search_2026-02-04_09h58.33.857.csv,,,,
white,7.0,1.0,2.0,[0.045],[-0.1288888888888889],[1],[0],[0],[1.3513446000006297],"['target', 'target']",2.0,1.0,7.0,0.0,22.40735129999939,,,,,,,,,,,22.394959799999924,22.40735129999939,0.0491547999999966,22.40735129999939,22.40735129999939,22.40735129999939,23.7479186999999,[0.045],[-0.1288888888888889],[1],[0],[0],[1.3513446000006297],"['target', 'target']",23.75656429999981,23.761829099999886,23.761829099999886,24.747786599999927,24.800646400000005,24.800646400000005,,,11.0,1.0,2026-02-04_09h58.44.739,visual_search,,2025.2.4,59.96001865952517,2026-02-04 09h58.44.853571 +0530,,11_visual_search_2026-02-04_09h58.33.857.csv,,,,
white,8.0,2.0,2.0,[-0.1411111111111111],[-0.16777777777777778],[1],[0],[0],[1.2446373000002495],"['target', 'target']",2.0,2.0,8.0,1.0,24.800646400000005,,,,,,,,,,,24.787279499999386,24.800646400000005,0.0391147999998793,24.800646400000005,24.800646400000005,24.800646400000005,26.03296599999976,[-0.1411111111111111],[-0.16777777777777778],[1],[0],[0],[1.2446373000002495],"['target', 'target']",26.04309209999974,26.04995119999967,26.04995119999967,27.04656049999994,,,,,11.0,1.0,2026-02-04_09h58.44.739,visual_search,,2025.2.4,59.96001865952517,2026-02-04 09h58.44.853571 +0530,,11_visual_search_2026-02-04_09h58.33.857.csv,,,,
red,9.0,0.0,3.0,[0.09555555555555556],[-0.12944444444444445],[1],[0],[0],[1.260494699999981],"['target', 'target']",3.0,0.0,9.0,2.0,27.098609299999225,,,,,,,,,,,27.08640379999997,27.098609299999225,0.0532051000000137,27.098609299999225,27.098609299999225,27.098609299999225,28.34780409999985,[0.09555555555555556],[-0.12944444444444445],[1],[0],[0],[1.260494699999981],"['target', 'target']",28.356298499999863,28.362647099999776,28.362647099999776,29.34732269999949,29.398184699999547,29.398184699999547,,,11.0,1.0,2026-02-04_09h58.44.739,visual_search,,2025.2.4,59.96001865952517,2026-02-04 09h58.44.853571 +0530,,11_visual_search_2026-02-04_09h58.33.857.csv,,,,
white,10.0,1.0,3.0,[0.235],[-0.15888888888888889],[1],[0],[0],[1.662614400000166],"['target', 'target']",3.0,1.0,10.0,1.0,29.398184699999547,,,,,,,,,,,29.385341199999857,29.398184699999547,0.0372013000005608,29.398184699999547,29.398184699999547,29.398184699999547,31.048918699999376,[0.235],[-0.15888888888888889],[1],[0],[0],[1.662614400000166],"['target', 'target']",31.0570103,31.06332619999921,31.06332619999921,32.04925469999944,32.10067789999994,32.10067789999994,,,11.0,1.0,2026-02-04_09h58.44.739,visual_search,,2025.2.4,59.96001865952517,2026-02-04 09h58.44.853571 +0530,,11_visual_search_2026-02-04_09h58.33.857.csv,,,,
white,11.0,2.0,3.0,[-0.17444444444444446],[-0.03277777777777778],[1],[0],[0],[1.5642688999996608],"['target', 'target']",3.0,2.0,11.0,0.0,32.10067789999994,,,,,,,,,,,32.0871819999993,32.10067789999994,0.0380501999998159,32.10067789999994,32.10067789999994,32.10067789999994,33.65255669999988,[-0.17444444444444446],[-0.03277777777777778],[1],[0],[0],[1.5642688999996608],"['target', 'target']",33.661893399999826,33.66904559999966,33.66904559999966,34.66554149999956,,,,,11.0,1.0,2026-02-04_09h58.44.739,visual_search,,2025.2.4,59.96001865952517,2026-02-04 09h58.44.853571 +0530,,11_visual_search_2026-02-04_09h58.33.857.csv,,,,
white,12.0,0.0,4.0,[-0.005],[-0.03111111111111111],[1],[0],[0],[1.280130399999507],"['target', 'target']",4.0,0.0,12.0,0.0,34.71912909999992,,,,,,,,,,,34.705379600000015,34.71912909999992,0.0524844999999913,34.71912909999992,34.71912909999992,34.71912909999992,35.98694769999929,[-0.005],[-0.03111111111111111],[1],[0],[0],[1.280130399999507],"['target', 'target']",35.99628009999924,36.002995299999384,36.002995299999384,36.99941829999989,,,,,11.0,1.0,2026-02-04_09h58.44.739,visual_search,,2025.2.4,59.96001865952517,2026-02-04 09h58.44.853571 +0530,,11_visual_search_2026-02-04_09h58.33.857.csv,,,,
white,13.0,1.0,4.0,[-0.23722222222222222],[-0.050555555555555555],[1],[0],[0],[1.41367530000025],"['target', 'target']",4.0,1.0,13.0,1.0,37.05209249999916,,,,,,,,,,,37.03859639999973,37.05209249999916,0.0512393999997584,37.05209249999916,37.05209249999916,37.05209249999916,38.45333489999939,[-0.23722222222222222],[-0.050555555555555555],[1],[0],[0],[1.41367530000025],"['target', 'target']",38.463242799999534,38.46923339999921,38.46923339999921,39.46697969999968,,,,,11.0,1.0,2026-02-04_09h58.44.739,visual_search,,2025.2.4,59.96001865952517,2026-02-04 09h58.44.853571 +0530,,11_visual_search_2026-02-04_09h58.33.857.csv,,,,
red,14.0,2.0,4.0,[0.1938888888888889],[0.18722222222222223],[1],[0],[0],[1.5152158999999301],"['target', 'target']",4.0,2.0,14.0,2.0,39.52131709999958,,,,,,,,,,,39.5072840999992,39.52131709999958,0.053735499999675,39.52131709999958,39.52131709999958,39.52131709999958,41.02383179999924,[0.1938888888888889],[0.18722222222222223],[1],[0],[0],[1.5152158999999301],"['target', 'target']",41.03376799999933,41.04061029999957,41.04061029999957,42.034925299999486,,,,,11.0,1.0,2026-02-04_09h58.44.739,visual_search,,2025.2.4,59.96001865952517,2026-02-04 09h58.44.853571 +0530,,11_visual_search_2026-02-04_09h58.33.857.csv,,,,
,,,,,,,,,,,,,,,,,,,,,,,,,,,,,,,,,,,,,,,,,,,,,,42.045118199999706,42.05112629999985,,,,,,,,,,11_visual_search_2026-02-04_09h58.33.857.csv,,,,
,,,,,,,,,,,,,,,,,0.0084775999999919,0.0158711000000266,0.0077966999999716,2.9787167000000068,0.0177777777777777,-0.0055555555555555,1.0,0.0,0.0,,,,,,,,,,,,,,,,,,,,,,,12.0,1.0,2026-02-04_10h30.24.878,visual_search,,2024.1.5,,2026-02-04 10h30.50.313313 +0530,,12_visual_search_2026-02-04_10h30.24.878.csv,,,,
white,,,,[-0.15166666666666667],[-0.059444444444444446],[1],[0],[0],[1.8533199000000309],['target'],0.0,0.0,0.0,0.0,3.141406599999982,,,,,,,,,,,3.0301569000000086,3.141406599999982,0.1336688999999751,3.141406599999982,3.141406599999982,3.141406599999982,4.966828599999985,,,,,,,,4.968664900000022,4.992344199999991,4.992344199999991,5.977640399999984,,,,,12.0,1.0,2026-02-04_10h30.24.878,visual_search,,2024.1.5,,2026-02-04 10h30.50.313313 +0530,,12_visual_search_2026-02-04_10h30.24.878.csv,,,,
white,,,,[0.18944444444444444],[0.03277777777777778],[1],[0],[0],[1.592852999999991],['target'],0.0,1.0,1.0,1.0,6.073078699999996,,,,,,,,,,,5.978117800000007,6.073078699999996,0.0796296000000325,6.073078699999996,6.073078699999996,6.073078699999996,7.6418937000000255,,,,,,,,7.642721900000026,7.663139399999977,7.663139399999977,8.643981699999983,,,,,12.0,1.0,2026-02-04_10h30.24.878,visual_search,,2024.1.5,,2026-02-04 10h30.50.313313 +0530,,12_visual_search_2026-02-04_10h30.24.878.csv,,,,
red,,,,[-0.20777777777777778],[0.2288888888888889],[1],[0],[0],[1.1741900999999757],['target'],0.0,2.0,2.0,2.0,8.739661099999978,,,,,,,,,,,8.644442099999992,8.739661099999978,0.0724667000000067,8.739661099999978,8.739661099999978,8.739661099999978,9.890191800000023,,,,,,,,9.89102889999998,9.9122658,9.9122658,10.899025300000003,,,,,12.0,1.0,2026-02-04_10h30.24.878,visual_search,,2024.1.5,,2026-02-04 10h30.50.313313 +0530,,12_visual_search_2026-02-04_10h30.24.878.csv,,,,
red,,,,[0.011111111111111112],[-0.22777777777777777],[1],[0],[0],[1.4573685999999952],['target'],1.0,0.0,3.0,2.0,11.0045935,,,,,,,,,,,10.899497600000018,11.0045935,0.0865396000000373,11.0045935,11.0045935,11.0045935,12.435890099999996,,,,,,,,12.436829100000011,12.454620499999976,12.454620499999976,13.443144800000027,,,,,12.0,1.0,2026-02-04_10h30.24.878,visual_search,,2024.1.5,,2026-02-04 10h30.50.313313 +0530,,12_visual_search_2026-02-04_10h30.24.878.csv,,,,
white,,,,[-0.18666666666666668],[0.14],[1],[0],[0],[1.6508249999999975],['target'],1.0,1.0,4.0,1.0,13.54460130000001,,,,,,,,,,,13.443640500000017,13.54460130000001,0.080167700000004,13.54460130000001,13.54460130000001,13.54460130000001,15.168598700000018,,,,,,,,15.169436700000006,15.191541099999997,15.191541099999997,16.17049750000001,,,,,12.0,1.0,2026-02-04_10h30.24.878,visual_search,,2024.1.5,,2026-02-04 10h30.50.313313 +0530,,12_visual_search_2026-02-04_10h30.24.878.csv,,,,
white,,,,[0.24666666666666667],[-0.22166666666666668],[1],[0],[0],[2.8480357000000254],['target'],1.0,2.0,5.0,0.0,16.270742900000016,,,,,,,,,,,16.170945700000004,16.270742900000016,0.0747602000000142,16.270742900000016,16.270742900000016,16.270742900000016,19.092926799999987,,,,,,,,19.09383200000002,19.110237900000016,19.110237900000016,20.097669699999983,,,,,12.0,1.0,2026-02-04_10h30.24.878,visual_search,,2024.1.5,,2026-02-04 10h30.50.313313 +0530,,12_visual_search_2026-02-04_10h30.24.878.csv,,,,
white,,,,[0.11722222222222223],[-0.03333333333333333],[1],[0],[0],[1.4411118000000442],['target'],2.0,0.0,6.0,0.0,20.196049000000016,,,,,,,,,,,20.0981195,20.196049000000016,0.0765468999999825,20.196049000000016,20.196049000000016,20.196049000000016,21.61236710000003,,,,,,,,21.613224100000025,21.630704999999978,21.630704999999978,22.61961150000002,,,,,12.0,1.0,2026-02-04_10h30.24.878,visual_search,,2024.1.5,,2026-02-04 10h30.50.313313 +0530,,12_visual_search_2026-02-04_10h30.24.878.csv,,,,
white,,,,[-0.23777777777777778],[-0.08833333333333333],[1],[0],[0],[1.237369699999988],['target'],2.0,1.0,7.0,1.0,22.718503800000008,,,,,,,,,,,22.620054700000026,22.718503800000008,0.0799685000000067,22.718503800000008,22.718503800000008,22.718503800000008,23.931478500000026,,,,,,,,23.932323,23.94969909999997,23.94969909999997,24.94148899999999,,,,,12.0,1.0,2026-02-04_10h30.24.878,visual_search,,2024.1.5,,2026-02-04 10h30.50.313313 +0530,,12_visual_search_2026-02-04_10h30.24.878.csv,,,,
red,,,,[-0.03277777777777778],[-0.08666666666666667],[1],[0],[0],[0.8206554999999867],['target'],2.0,2.0,8.0,2.0,25.044117200000017,,,,,,,,,,,24.941931599999972,25.044117200000017,0.0853256999999985,25.044117200000017,25.044117200000017,25.044117200000017,25.839091900000028,,,,,,,,25.8399326,25.85723150000001,25.85723150000001,26.8466651,,,,,12.0,1.0,2026-02-04_10h30.24.878,visual_search,,2024.1.5,,2026-02-04 10h30.50.313313 +0530,,12_visual_search_2026-02-04_10h30.24.878.csv,,,,
white,,,,[-0.22277777777777777],[0.2111111111111111],[1],[0],[0],[1.1888703999999848],['target'],3.0,0.0,9.0,0.0,26.9459804,,,,,,,,,,,26.847191500000008,26.9459804,0.0793350000000145,26.9459804,26.9459804,26.9459804,28.10887280000003,,,,,,,,28.109709599999974,28.127509799999984,28.127509799999984,29.11301659999998,,,,,12.0,1.0,2026-02-04_10h30.24.878,visual_search,,2024.1.5,,2026-02-04 10h30.50.313313 +0530,,12_visual_search_2026-02-04_10h30.24.878.csv,,,,
white,,,,[0.03611111111111111],[-0.009444444444444445],[1],[0],[0],[0.967981199999997],['target'],3.0,1.0,10.0,1.0,29.216119900000024,,,,,,,,,,,29.113494300000013,29.216119900000024,0.0780034999999657,29.216119900000024,29.216119900000024,29.216119900000024,30.15664670000001,,,,,,,,30.157506300000023,30.1741169,30.1741169,31.158125299999995,31.257613900000024,31.257613900000024,,,12.0,1.0,2026-02-04_10h30.24.878,visual_search,,2024.1.5,,2026-02-04 10h30.50.313313 +0530,,12_visual_search_2026-02-04_10h30.24.878.csv,,,,
red,,,,[-0.1322222222222222],[0.21333333333333335],[1],[0],[0],[1.2551599999999894],['target'],3.0,2.0,11.0,2.0,31.257613900000024,,,,,,,,,,,31.158592699999986,31.257613900000024,0.0744449999999687,31.257613900000024,31.257613900000024,31.257613900000024,32.487794699999995,,,,,,,,32.48864659999998,32.50501200000002,32.50501200000002,33.4957493,,,,,12.0,1.0,2026-02-04_10h30.24.878,visual_search,,2024.1.5,,2026-02-04 10h30.50.313313 +0530,,12_visual_search_2026-02-04_10h30.24.878.csv,,,,
white,,,,[-0.20166666666666666],[-0.22166666666666668],[1],[0],[0],[2.0851288000000068],['target'],4.0,0.0,12.0,0.0,33.593310299999985,,,,,,,,,,,33.49619000000001,33.593310299999985,0.0788891000000262,33.593310299999985,33.593310299999985,33.593310299999985,35.65346090000003,,,,,,,,35.65429770000003,35.67138779999999,35.67138779999999,36.6616449,,,,,12.0,1.0,2026-02-04_10h30.24.878,visual_search,,2024.1.5,,2026-02-04 10h30.50.313313 +0530,,12_visual_search_2026-02-04_10h30.24.878.csv,,,,
red,,,,[-0.04555555555555556],[-0.22777777777777777],[1],[0],[0],[0.9957630000000108],['target'],4.0,1.0,13.0,2.0,36.759373400000015,,,,,,,,,,,36.66213570000002,36.759373400000015,0.0797371999999541,36.759373400000015,36.759373400000015,36.759373400000015,37.73065500000001,,,,,,,,37.731525499999975,37.74952289999999,37.74952289999999,38.73933169999998,,,,,12.0,1.0,2026-02-04_10h30.24.878,visual_search,,2024.1.5,,2026-02-04 10h30.50.313313 +0530,,12_visual_search_2026-02-04_10h30.24.878.csv,,,,
white,,,,[0.07611111111111112],[0.12611111111111112],[1],[0],[0],[2.051162099999999],['target'],4.0,2.0,14.0,1.0,38.837248699999975,,,,,,,,,,,38.73977489999999,38.837248699999975,0.0804049000000191,38.837248699999975,38.837248699999975,38.837248699999975,40.86384820000001,,,,,,,,40.864683000000014,40.8823688,40.8823688,41.87222759999997,,,,,12.0,1.0,2026-02-04_10h30.24.878,visual_search,,2024.1.5,,2026-02-04 10h30.50.313313 +0530,,12_visual_search_2026-02-04_10h30.24.878.csv,,,,
,,,,,,,,,,,,,,,,,,,,,,,,,,,,,,,,,,,,,,,,,,,,,,41.87232089999998,41.88532959999998,12.0,1.0,2026-02-04_10h30.24.878,visual_search,,2024.1.5,,2026-02-04 10h30.50.313313 +0530,,12_visual_search_2026-02-04_10h30.24.878.csv,51.870819900000015,,,
,,,,,,,,,,,,,,,,,0.008347699999831,0.015830499999538,0.0077565000001413,12.944875899999715,-0.0483333333333333,0.1811111111111111,1.0,0.0,0.0,,,,,,,,,,,,,,,,,,,,,,,13.0,1.0,2026-02-04_11h30.37.231,visual_search,,2024.1.5,,2026-02-04 11h33.00.989340 +0530,,13_visual_search_2026-02-04_11h30.37.231.csv,,,,
white,,,,[0.14166666666666666],[-0.03611111111111111],[1],[0],[0],[2.4630092999996123],['target'],0.0,0.0,0.0,0.0,13.111488099999406,,,,,,,,,,,12.994496100000106,13.111488099999406,0.1343513000001621,13.111488099999406,13.111488099999406,13.111488099999406,15.54339600000003,,,,,,,,15.54474289999962,15.569577299999764,15.569577299999764,16.54825139999957,,,,,13.0,1.0,2026-02-04_11h30.37.231,visual_search,,2024.1.5,,2026-02-04 11h33.00.989340 +0530,,13_visual_search_2026-02-04_11h30.37.231.csv,,,,
red,,,,[-0.04],[-0.23],[1],[0],[0],[1.5900179000000207],['target'],0.0,1.0,1.0,2.0,16.648116299999856,,,,,,,,,,,16.548785599999974,16.648116299999856,0.0777590999996391,16.648116299999856,16.648116299999856,16.648116299999856,18.21325759999945,,,,,,,,18.21407029999955,18.23266650000005,18.23266650000005,19.21936610000012,,,,,13.0,1.0,2026-02-04_11h30.37.231,visual_search,,2024.1.5,,2026-02-04 11h33.00.989340 +0530,,13_visual_search_2026-02-04_11h30.37.231.csv,,,,
white,,,,[-0.15555555555555556],[-0.021666666666666667],[1],[0],[0],[1.3087365000001228],['target'],0.0,2.0,2.0,1.0,19.31924889999937,,,,,,,,,,,19.219889499999223,19.31924889999937,0.0785663000006025,19.31924889999937,19.31924889999937,19.31924889999937,20.60197599999992,,,,,,,,20.60279679999985,20.622452099999464,20.622452099999464,21.60792499999934,,,,,13.0,1.0,2026-02-04_11h30.37.231,visual_search,,2024.1.5,,2026-02-04 11h33.00.989340 +0530,,13_visual_search_2026-02-04_11h30.37.231.csv,,,,
white,,,,[-0.0044444444444444444],[-0.11444444444444445],[1],[0],[0],[1.4417351000001872],['target'],1.0,0.0,3.0,1.0,21.712563499999305,,,,,,,,,,,21.60848209999949,21.712563499999305,0.0829321999999592,21.712563499999305,21.712563499999305,21.712563499999305,23.128288599999905,,,,,,,,23.129264899999725,23.147516899999573,23.147516899999573,24.135284599999977,,,,,13.0,1.0,2026-02-04_11h30.37.231,visual_search,,2024.1.5,,2026-02-04 11h33.00.989340 +0530,,13_visual_search_2026-02-04_11h30.37.231.csv,,,,
red,,,,[0.025],[0.17722222222222223],[1],[0],[0],[1.1991854999996576],['target'],1.0,1.0,4.0,2.0,24.241685099999813,,,,,,,,,,,24.135821699999724,24.241685099999813,0.0813228000006347,24.241685099999813,24.241685099999813,24.241685099999813,25.41044729999976,,,,,,,,25.41125920000013,25.43163039999945,25.43163039999945,26.418353000000025,,,,,13.0,1.0,2026-02-04_11h30.37.231,visual_search,,2024.1.5,,2026-02-04 11h33.00.989340 +0530,,13_visual_search_2026-02-04_11h30.37.231.csv,,,,
white,,,,[0.11222222222222222],[0.15944444444444444],[1],[0],[0],[1.1700227999999697],['target'],1.0,2.0,5.0,0.0,26.52273229999992,,,,,,,,,,,26.419006199999785,26.52273229999992,0.0826479999996081,26.52273229999992,26.52273229999992,26.52273229999992,27.6649067999997,,,,,,,,27.665756299999885,27.68389329999991,27.68389329999991,28.6679196999994,,,,,13.0,1.0,2026-02-04_11h30.37.231,visual_search,,2024.1.5,,2026-02-04 11h33.00.989340 +0530,,13_visual_search_2026-02-04_11h30.37.231.csv,,,,
white,,,,[0.12944444444444445],[0.115],[1],[0],[0],[0.9432764000002862],['target'],2.0,0.0,6.0,1.0,28.76997109999957,,,,,,,,,,,28.66845639999974,28.76997109999957,0.0775948999998945,28.76997109999957,28.76997109999957,28.76997109999957,29.687375699999397,,,,,,,,29.68817779999972,29.706260199999637,29.706260199999637,30.695502799999304,,,,,13.0,1.0,2026-02-04_11h30.37.231,visual_search,,2024.1.5,,2026-02-04 11h33.00.989340 +0530,,13_visual_search_2026-02-04_11h30.37.231.csv,,,,
red,,,,[-0.1411111111111111],[0.03388888888888889],[1],[0],[0],[1.0943475999993098],['target'],2.0,1.0,7.0,2.0,30.80087519999961,,,,,,,,,,,30.696304099999907,30.80087519999961,0.0825867999992624,30.80087519999961,30.80087519999961,30.80087519999961,31.865791299999728,,,,,,,,31.867226299999857,31.88547429999926,31.88547429999926,32.86743739999929,,,,,13.0,1.0,2026-02-04_11h30.37.231,visual_search,,2024.1.5,,2026-02-04 11h33.00.989340 +0530,,13_visual_search_2026-02-04_11h30.37.231.csv,,,,
white,,,,[0.1461111111111111],[-0.05611111111111111],[1],[0],[0],[1.8453191999997216],['target'],2.0,2.0,8.0,0.0,32.97046829999999,,,,,,,,,,,32.867970799999966,32.97046829999999,0.075171099999352,32.97046829999999,32.97046829999999,32.97046829999999,34.788495499999954,,,,,,,,34.78932589999931,34.811218499999995,34.811218499999995,35.794295599999714,,,,,13.0,1.0,2026-02-04_11h30.37.231,visual_search,,2024.1.5,,2026-02-04 11h33.00.989340 +0530,,13_visual_search_2026-02-04_11h30.37.231.csv,,,,
white,,,,[0.115],[0.11611111111111111],[1],[0],[0],[1.1835886999997456],['target'],3.0,0.0,9.0,0.0,35.90065069999946,,,,,,,,,,,35.794935999999325,35.90065069999946,0.0797400999999808,35.90065069999946,35.90065069999946,35.90065069999946,37.05343619999985,,,,,,,,37.0543545999999,37.07212299999992,37.07212299999992,38.05500049999955,,,,,13.0,1.0,2026-02-04_11h30.37.231,visual_search,,2024.1.5,,2026-02-04 11h33.00.989340 +0530,,13_visual_search_2026-02-04_11h30.37.231.csv,,,,
white,,,,[-0.035],[0.1288888888888889],[1],[0],[0],[1.4242543000000296],['target'],3.0,1.0,10.0,1.0,38.16083149999941,,,,,,,,,,,38.05563749999965,38.16083149999941,0.0752635999997437,38.16083149999941,38.16083149999941,38.16083149999941,39.55463400000008,,,,,,,,39.55547679999927,39.577822899999774,39.577822899999774,40.56004159999975,,,,,13.0,1.0,2026-02-04_11h30.37.231,visual_search,,2024.1.5,,2026-02-04 11h33.00.989340 +0530,,13_visual_search_2026-02-04_11h30.37.231.csv,,,,
red,,,,[-0.11388888888888889],[-0.042777777777777776],[1],[0],[0],[1.4133810000002995],['target'],3.0,2.0,11.0,2.0,40.66370339999958,,,,,,,,,,,40.56079619999946,40.66370339999958,0.0792738000000099,40.66370339999958,40.66370339999958,40.66370339999958,42.04891150000003,,,,,,,,42.04974519999996,42.07227919999968,42.07227919999968,43.05401729999994,,,,,13.0,1.0,2026-02-04_11h30.37.231,visual_search,,2024.1.5,,2026-02-04 11h33.00.989340 +0530,,13_visual_search_2026-02-04_11h30.37.231.csv,,,,
white,,,,[-0.19944444444444445],[-0.16444444444444445],[1],[0],[0],[1.3186023999996905],['target'],4.0,0.0,12.0,0.0,43.15749049999977,,,,,,,,,,,43.05448350000006,43.15749049999977,0.0793462999999974,43.15749049999977,43.15749049999977,43.15749049999977,44.44846779999989,,,,,,,,44.44928269999946,44.46946389999994,44.46946389999994,45.46006469999975,,,,,13.0,1.0,2026-02-04_11h30.37.231,visual_search,,2024.1.5,,2026-02-04 11h33.00.989340 +0530,,13_visual_search_2026-02-04_11h30.37.231.csv,,,,
white,,,,[-0.13944444444444445],[0.1111111111111111],[1],[0],[0],[1.2329382999996596],['target'],4.0,1.0,13.0,1.0,45.57514649999939,,,,,,,,,,,45.46072430000004,45.57514649999939,0.0880065999999715,45.57514649999939,45.57514649999939,45.57514649999939,46.77112179999949,,,,,,,,46.77193149999948,46.790370199999415,46.790370199999415,47.77841660000013,,,,,13.0,1.0,2026-02-04_11h30.37.231,visual_search,,2024.1.5,,2026-02-04 11h33.00.989340 +0530,,13_visual_search_2026-02-04_11h30.37.231.csv,,,,
red,,,,[-0.15611111111111112],[0.012777777777777779],[1],[0],[0],[1.2404350000006161],['target'],4.0,2.0,14.0,2.0,47.88284599999952,,,,,,,,,,,47.77899939999952,47.88284599999952,0.0808238999998138,47.88284599999952,47.88284599999952,47.88284599999952,49.09406760000002,,,,,,,,49.0950858999995,49.114945199999966,49.114945199999966,50.10550079999939,,,,,13.0,1.0,2026-02-04_11h30.37.231,visual_search,,2024.1.5,,2026-02-04 11h33.00.989340 +0530,,13_visual_search_2026-02-04_11h30.37.231.csv,,,,
,,,,,,,,,,,,,,,,,,,,,,,,,,,,,,,,,,,,,,,,,,,,,,50.10561309999957,50.12271839999994,13.0,1.0,2026-02-04_11h30.37.231,visual_search,,2024.1.5,,2026-02-04 11h33.00.989340 +0530,,13_visual_search_2026-02-04_11h30.37.231.csv,60.104532800000015,,,
,,,,,,,,,,,,,,,,,0.0083075999999948,0.0163903000000118,0.0078974999999843,19.84943609999999,-0.1088888888888888,0.27,1.0,0.0,0.0,,,,,,,,,,,,,,,,,,,,,,,14.0,1.0,2026-02-05_09h30.51.690,visual_search,,2024.1.5,,2026-02-05 09h31.27.553552 +0530,,14_visual_search_2026-02-05_09h30.51.690.csv,,,,
white,,,,[0.11333333333333333],[0.22],[1],[0],[0],[1.4767247999999995],['target'],0.0,0.0,0.0,0.0,20.04327599999999,,,,,,,,,,,19.910666400000025,20.04327599999999,0.1603862000000049,20.04327599999999,20.04327599999999,20.04327599999999,21.487853099999995,,,,,,,,21.4897378,21.517876400000038,21.517876400000038,22.5019863,,,,,14.0,1.0,2026-02-05_09h30.51.690,visual_search,,2024.1.5,,2026-02-05 09h31.27.553552 +0530,,14_visual_search_2026-02-05_09h30.51.690.csv,,,,
white,,,,[-0.014444444444444444],[-0.09055555555555556],[1],[0],[0],[1.3827446999999893],['target'],0.0,1.0,1.0,1.0,22.607940499999984,,,,,,,,,,,22.50272590000003,22.607940499999984,0.0901664000000437,22.607940499999984,22.607940499999984,22.607940499999984,23.96354550000001,,,,,,,,23.964748999999983,23.9901332,23.9901332,24.96830299999999,,,,,14.0,1.0,2026-02-05_09h30.51.690,visual_search,,2024.1.5,,2026-02-05 09h31.27.553552 +0530,,14_visual_search_2026-02-05_09h30.51.690.csv,,,,
red,,,,[0.22555555555555556],[0.08333333333333333],[1],[0],[0],[1.269938800000034],['target'],0.0,2.0,2.0,2.0,25.097554400000035,,,,,,,,,,,24.9690693,25.097554400000035,0.0906824000000483,25.097554400000035,25.097554400000035,25.097554400000035,26.326064700000018,,,,,,,,26.326999100000023,26.351915200000008,26.351915200000008,27.33480270000001,,,,,14.0,1.0,2026-02-05_09h30.51.690,visual_search,,2024.1.5,,2026-02-05 09h31.27.553552 +0530,,14_visual_search_2026-02-05_09h30.51.690.csv,,,,
red,,,,[-0.19111111111111112],[0.06333333333333334],[1],[0],[0],[0.959958400000005],['target'],1.0,0.0,3.0,2.0,27.438786300000004,,,,,,,,,,,27.33535760000001,27.438786300000004,0.0841477999999824,27.438786300000004,27.438786300000004,27.438786300000004,28.37190520000001,,,,,,,,28.3727614,28.3912545,28.3912545,29.384208900000036,,,,,14.0,1.0,2026-02-05_09h30.51.690,visual_search,,2024.1.5,,2026-02-05 09h31.27.553552 +0530,,14_visual_search_2026-02-05_09h30.51.690.csv,,,,
white,,,,[0.19722222222222222],[0.12111111111111111],[1],[0],[0],[2.4287517999999864],['target'],1.0,1.0,4.0,0.0,29.495825200000013,,,,,,,,,,,29.3847705,29.495825200000013,0.0937230999999769,29.495825200000013,29.495825200000013,29.495825200000013,31.8961453,,,,,,,,31.89708619999999,31.914594599999987,31.914594599999987,32.90031959999999,,,,,14.0,1.0,2026-02-05_09h30.51.690,visual_search,,2024.1.5,,2026-02-05 09h31.27.553552 +0530,,14_visual_search_2026-02-05_09h30.51.690.csv,,,,
white,,,,[0.18666666666666668],[-0.20277777777777778],[1],[0],[0],[2.4086312999999677],['target'],1.0,2.0,5.0,1.0,33.03306600000002,,,,,,,,,,,32.90101490000001,33.03306600000002,0.1075269000000389,33.03306600000002,33.03306600000002,33.03306600000002,35.41440319999998,,,,,,,,35.41528729999999,35.43465170000002,35.43465170000002,36.41679770000002,,,,,14.0,1.0,2026-02-05_09h30.51.690,visual_search,,2024.1.5,,2026-02-05 09h31.27.553552 +0530,,14_visual_search_2026-02-05_09h30.51.690.csv,,,,
white,,,,[-0.21388888888888888],[0.23277777777777778],[1],[0],[0],[1.8314157000000364],['target'],2.0,0.0,6.0,0.0,36.561329,,,,,,,,,,,36.4172643,36.561329,0.0994200000000091,36.561329,36.561329,36.561329,38.34720550000003,,,,,,,,38.34806710000004,38.3666551,38.3666551,39.3497878,,,,,14.0,1.0,2026-02-05_09h30.51.690,visual_search,,2024.1.5,,2026-02-05 09h31.27.553552 +0530,,14_visual_search_2026-02-05_09h30.51.690.csv,,,,
red,,,,[0.16833333333333333],[-0.16777777777777778],[1],[0],[0],[1.383039100000019],['target'],2.0,1.0,7.0,2.0,39.478779900000006,,,,,,,,,,,39.35063840000004,39.478779900000006,0.0906057000000259,39.478779900000006,39.478779900000006,39.478779900000006,40.82249300000001,,,,,,,,40.82341539999999,40.84407759999999,40.84407759999999,41.83332840000003,,,,,14.0,1.0,2026-02-05_09h30.51.690,visual_search,,2024.1.5,,2026-02-05 09h31.27.553552 +0530,,14_visual_search_2026-02-05_09h30.51.690.csv,,,,
white,,,,[-0.10444444444444445],[-0.08333333333333333],[1],[0],[0],[2.1809734999999932],['target'],2.0,2.0,8.0,1.0,41.95790929999998,,,,,,,,,,,41.83386089999999,41.95790929999998,0.1046916999999894,41.95790929999998,41.95790929999998,41.95790929999998,44.10984890000003,,,,,,,,44.11112280000003,44.130945,44.130945,45.11618680000004,,,,,14.0,1.0,2026-02-05_09h30.51.690,visual_search,,2024.1.5,,2026-02-05 09h31.27.553552 +0530,,14_visual_search_2026-02-05_09h30.51.690.csv,,,,
white,,,,[-0.026111111111111113],[0.05555555555555555],[1],[0],[0],[1.232958300000007],['target'],3.0,0.0,9.0,0.0,45.245395900000005,,,,,,,,,,,45.1170358,45.245395900000005,0.0976172999999676,45.245395900000005,45.245395900000005,45.245395900000005,46.44248900000002,,,,,,,,46.44336520000002,46.46248409999998,46.46248409999998,47.44894550000004,,,,,14.0,1.0,2026-02-05_09h30.51.690,visual_search,,2024.1.5,,2026-02-05 09h31.27.553552 +0530,,14_visual_search_2026-02-05_09h30.51.690.csv,,,,
white,,,,[-0.20222222222222222],[-0.012222222222222223],[1],[0],[0],[2.2458861999999726],['target'],3.0,1.0,10.0,1.0,47.57260109999999,,,,,,,,,,,47.44969209999999,47.57260109999999,0.0957295000000044,47.57260109999999,47.57260109999999,47.57260109999999,49.78594820000001,,,,,,,,49.78683080000002,49.8048756,49.8048756,50.798323100000005,,,,,14.0,1.0,2026-02-05_09h30.51.690,visual_search,,2024.1.5,,2026-02-05 09h31.27.553552 +0530,,14_visual_search_2026-02-05_09h30.51.690.csv,,,,
red,,,,[-0.13055555555555556],[0.1511111111111111],[1],[0],[0],[1.1884078999999588],['target'],3.0,2.0,11.0,2.0,50.92754500000001,,,,,,,,,,,50.79939569999999,50.92754500000001,0.1025870000000281,50.92754500000001,50.92754500000001,50.92754500000001,52.07858950000002,,,,,,,,52.07959720000002,52.09891900000002,52.09891900000002,53.08154430000002,,,,,14.0,1.0,2026-02-05_09h30.51.690,visual_search,,2024.1.5,,2026-02-05 09h31.27.553552 +0530,,14_visual_search_2026-02-05_09h30.51.690.csv,,,,
white,,,,[-0.23722222222222222],[0.0038888888888888888],[1],[0],[0],[1.6360217000000148],['target'],4.0,0.0,12.0,1.0,53.19985589999999,,,,,,,,,,,53.0823393,53.19985589999999,0.0852927999999906,53.19985589999999,53.19985589999999,53.19985589999999,54.8019693,,,,,,,,54.80293770000003,54.82243820000002,54.82243820000002,55.81419490000002,,,,,14.0,1.0,2026-02-05_09h30.51.690,visual_search,,2024.1.5,,2026-02-05 09h31.27.553552 +0530,,14_visual_search_2026-02-05_09h30.51.690.csv,,,,
white,,,,[0.06666666666666667],[-0.075],[1],[0],[0],[1.9443578000000343],['target'],4.0,1.0,13.0,0.0,55.93466469999999,,,,,,,,,,,55.814767200000006,55.93466469999999,0.0977754999999547,55.93466469999999,55.93466469999999,55.93466469999999,57.8459474,,,,,,,,57.84677199999999,57.86790209999998,57.86790209999998,58.8469801,,,,,14.0,1.0,2026-02-05_09h30.51.690,visual_search,,2024.1.5,,2026-02-05 09h31.27.553552 +0530,,14_visual_search_2026-02-05_09h30.51.690.csv,,,,
red,,,,[-0.03833333333333333],[0.12166666666666667],[1],[0],[0],[1.0321821999999656],['target'],4.0,2.0,14.0,2.0,58.96339419999998,,,,,,,,,,,58.84745989999999,58.96339419999998,0.0815701000000217,58.96339419999998,58.96339419999998,58.96339419999998,59.9616158,,,,,,,,59.96309589999999,59.98581640000003,59.98581640000003,60.9798346,,,,,14.0,1.0,2026-02-05_09h30.51.690,visual_search,,2024.1.5,,2026-02-05 09h31.27.553552 +0530,,14_visual_search_2026-02-05_09h30.51.690.csv,,,,
,,,,,,,,,,,,,,,,,,,,,,,,,,,,,,,,,,,,,,,,,,,,,,60.97995250000002,60.9976552,14.0,1.0,2026-02-05_09h30.51.690,visual_search,,2024.1.5,,2026-02-05 09h31.27.553552 +0530,,14_visual_search_2026-02-05_09h30.51.690.csv,70.97839570000002,,,
,,,,,,,,,,,,,,,,,0.0042896999999584,0.014418599999999,0.0038011000000324,2.924675499999921,0.225,-0.1988888888888889,1.0,0.0,0.0,,,,,,,,,,,,,,,,,,,,,,,15.0,1.0,2026-02-05_11h48.54.725,visual_search,,2025.2.4,59.91188160454328,2026-02-05 11h48.55.334616 +0530,,15_visual_search_2026-02-05_11h48.30.286.csv,,,,
white,0.0,0.0,0.0,[-0.1288888888888889],[-0.10388888888888889],[1],[0],[0],[1.5952063999999382],"['target', 'target']",0.0,0.0,0.0,1.0,3.122153700000013,,,,,,,,,,,3.100474200000008,3.122153700000013,0.1755137000000104,3.122153700000013,3.122153700000013,3.122153700000013,4.697211599999946,[-0.1288888888888889],[-0.10388888888888889],[1],[0],[0],[1.5952063999999382],"['target', 'target']",4.7221262999999,4.733333399999992,4.733333399999992,5.706444799999986,,,,,15.0,1.0,2026-02-05_11h48.54.725,visual_search,,2025.2.4,59.91188160454328,2026-02-05 11h48.55.334616 +0530,,15_visual_search_2026-02-05_11h48.30.286.csv,,,,
red,1.0,1.0,0.0,[-0.10777777777777778],[-0.18833333333333332],[1],[0],[0],[2.0493465000000697],"['target', 'target']",0.0,1.0,1.0,2.0,5.779646500000013,,,,,,,,,,,5.760676099999955,5.779646500000013,0.0625363000000334,5.779646500000013,5.779646500000013,5.779646500000013,7.811009899999931,[-0.10777777777777778],[-0.18833333333333332],[1],[0],[0],[2.0493465000000697],"['target', 'target']",7.824711699999966,7.829736799999978,7.829736799999978,8.8244416,,,,,15.0,1.0,2026-02-05_11h48.54.725,visual_search,,2025.2.4,59.91188160454328,2026-02-05 11h48.55.334616 +0530,,15_visual_search_2026-02-05_11h48.30.286.csv,,,,
white,2.0,2.0,0.0,[-0.10611111111111111],[0.11166666666666666],[1],[0],[0],[1.2118295000000217],"['target', 'target']",0.0,2.0,2.0,0.0,8.898378099999945,,,,,,,,,,,8.880775499999913,8.898378099999945,0.0694837999999435,8.898378099999945,8.898378099999945,8.898378099999945,10.0939396,[-0.10611111111111111],[0.11166666666666666],[1],[0],[0],[1.2118295000000217],"['target', 'target']",10.10553349999998,10.111660099999996,10.111660099999996,11.107703799999967,,,,,15.0,1.0,2026-02-05_11h48.54.725,visual_search,,2025.2.4,59.91188160454328,2026-02-05 11h48.55.334616 +0530,,15_visual_search_2026-02-05_11h48.30.286.csv,,,,
white,3.0,0.0,1.0,[-0.18333333333333332],[0.04555555555555556],[1],[0],[0],[1.2205835999999408],"['target', 'target']",1.0,0.0,3.0,1.0,11.199819599999955,,,,,,,,,,,11.172919099999945,11.199819599999955,0.0785678000000871,11.199819599999955,11.199819599999955,11.199819599999955,12.394609399999922,[-0.18333333333333332],[0.04555555555555556],[1],[0],[0],[1.2205835999999408],"['target', 'target']",12.407176899999968,12.41408709999996,12.41408709999996,13.408159899999989,,,,,15.0,1.0,2026-02-05_11h48.54.725,visual_search,,2025.2.4,59.91188160454328,2026-02-05 11h48.55.334616 +0530,,15_visual_search_2026-02-05_11h48.30.286.csv,,,,
red,4.0,1.0,1.0,[0.18555555555555556],[-0.08],[1],[0],[0],[1.151955799999996],"['target', 'target']",1.0,1.0,4.0,2.0,13.476084799999969,,,,,,,,,,,13.458456699999942,13.476084799999969,0.0635439999999789,13.476084799999969,13.476084799999969,13.476084799999969,14.612003200000004,[0.18555555555555556],[-0.08],[1],[0],[0],[1.151955799999996],"['target', 'target']",14.630701499999986,14.63802899999996,14.63802899999996,15.625593199999912,,,,,15.0,1.0,2026-02-05_11h48.54.725,visual_search,,2025.2.4,59.91188160454328,2026-02-05 11h48.55.334616 +0530,,15_visual_search_2026-02-05_11h48.30.286.csv,,,,
white,5.0,2.0,1.0,[0.21222222222222223],[-0.049444444444444444],[1],[0],[0],[1.371493800000053],"['target', 'target']",1.0,2.0,5.0,0.0,15.7095276,,,,,,,,,,,15.689923199999953,15.7095276,0.0770215999999663,15.7095276,15.7095276,15.7095276,17.06247369999994,[0.21222222222222223],[-0.049444444444444444],[1],[0],[0],[1.371493800000053],"['target', 'target']",17.08063979999997,17.08764259999998,17.08764259999998,18.076251399999933,,,,,15.0,1.0,2026-02-05_11h48.54.725,visual_search,,2025.2.4,59.91188160454328,2026-02-05 11h48.55.334616 +0530,,15_visual_search_2026-02-05_11h48.30.286.csv,,,,
white,6.0,0.0,2.0,[-0.03111111111111111],[-0.06222222222222222],[1],[0],[0],[1.4743415000000368],"['target', 'target']",2.0,0.0,6.0,0.0,18.180637899999965,,,,,,,,,,,18.155510299999943,18.180637899999965,0.0926943000000619,18.180637899999965,18.180637899999965,18.180637899999965,19.63107059999993,[-0.03111111111111111],[-0.06222222222222222],[1],[0],[0],[1.4743415000000368],"['target', 'target']",19.644824299999986,19.651524999999992,19.651524999999992,20.64391719999992,,,,,15.0,1.0,2026-02-05_11h48.54.725,visual_search,,2025.2.4,59.91188160454328,2026-02-05 11h48.55.334616 +0530,,15_visual_search_2026-02-05_11h48.30.286.csv,,,,
red,7.0,1.0,2.0,[0.2011111111111111],[-0.10333333333333333],[1],[0],[0],[1.0980438999999933],"['target', 'target']",2.0,1.0,7.0,2.0,20.71864629999993,,,,,,,,,,,20.698726999999963,20.71864629999993,0.0672839999999723,20.71864629999993,20.71864629999993,20.71864629999993,21.797810400000003,[0.2011111111111111],[-0.10333333333333333],[1],[0],[0],[1.0980438999999933],"['target', 'target']",21.814042099999934,21.821838699999944,21.821838699999944,22.81090719999997,,,,,15.0,1.0,2026-02-05_11h48.54.725,visual_search,,2025.2.4,59.91188160454328,2026-02-05 11h48.55.334616 +0530,,15_visual_search_2026-02-05_11h48.30.286.csv,,,,
white,8.0,2.0,2.0,[0.10111111111111111],[-0.21944444444444444],[1],[0],[0],[1.175803999999971],"['target', 'target']",2.0,2.0,8.0,1.0,22.909220199999936,,,,,,,,,,,22.888281299999903,22.909220199999936,0.0901542999999946,22.909220199999936,22.909220199999936,22.909220199999936,24.06535559999997,[0.10111111111111111],[-0.21944444444444444],[1],[0],[0],[1.175803999999971],"['target', 'target']",24.08103499999993,24.08862149999993,24.08862149999993,25.07802529999992,,,,,15.0,1.0,2026-02-05_11h48.54.725,visual_search,,2025.2.4,59.91188160454328,2026-02-05 11h48.55.334616 +0530,,15_visual_search_2026-02-05_11h48.30.286.csv,,,,
red,9.0,0.0,3.0,[0.21444444444444444],[-0.21222222222222223],[1],[0],[0],[0.9025376000000733],"['target', 'target']",3.0,0.0,9.0,2.0,25.17329869999992,,,,,,,,,,,25.145038099999965,25.17329869999992,0.0792864999999665,25.17329869999992,25.17329869999992,25.17329869999992,26.048832099999917,[0.21444444444444444],[-0.21222222222222223],[1],[0],[0],[0.9025376000000733],"['target', 'target']",26.0604108,26.06676419999997,26.06676419999997,27.062010600000008,,,,,15.0,1.0,2026-02-05_11h48.54.725,visual_search,,2025.2.4,59.91188160454328,2026-02-05 11h48.55.334616 +0530,,15_visual_search_2026-02-05_11h48.30.286.csv,,,,
white,10.0,1.0,3.0,[0.07722222222222222],[0.16111111111111112],[1],[0],[0],[1.2387198999999782],"['target', 'target']",3.0,1.0,10.0,1.0,27.17222670000001,,,,,,,,,,,27.142201,27.17222670000001,0.0925363999999717,27.17222670000001,27.17222670000001,27.17222670000001,28.3829379,[0.07722222222222222],[0.16111111111111112],[1],[0],[0],[1.2387198999999782],"['target', 'target']",28.398272599999927,28.406825899999944,28.406825899999944,29.396192399999904,,,,,15.0,1.0,2026-02-05_11h48.54.725,visual_search,,2025.2.4,59.91188160454328,2026-02-05 11h48.55.334616 +0530,,15_visual_search_2026-02-05_11h48.30.286.csv,,,,
white,11.0,2.0,3.0,[-0.15833333333333333],[0.1461111111111111],[1],[0],[0],[1.9252501999999367],"['target', 'target']",3.0,2.0,11.0,0.0,29.4750904,,,,,,,,,,,29.456243299999983,29.4750904,0.0729968000000553,29.4750904,29.4750904,29.4750904,31.382466999999902,[-0.15833333333333333],[0.1461111111111111],[1],[0],[0],[1.9252501999999367],"['target', 'target']",31.39261209999995,31.40037749999999,31.40037749999999,32.39680439999995,,,,,15.0,1.0,2026-02-05_11h48.54.725,visual_search,,2025.2.4,59.91188160454328,2026-02-05 11h48.55.334616 +0530,,15_visual_search_2026-02-05_11h48.30.286.csv,,,,
white,12.0,0.0,4.0,[-0.16833333333333333],[-0.06833333333333333],[1],[0],[0],[1.5401438000000098],"['target', 'target']",4.0,0.0,12.0,1.0,32.48016329999996,,,,,,,,,,,32.46013749999997,32.48016329999996,0.0774026999999932,32.48016329999996,32.48016329999996,32.48016329999996,34.00146819999998,[-0.16833333333333333],[-0.06833333333333333],[1],[0],[0],[1.5401438000000098],"['target', 'target']",34.01503319999995,34.02396609999994,34.02396609999994,35.01405309999996,,,,,15.0,1.0,2026-02-05_11h48.54.725,visual_search,,2025.2.4,59.91188160454328,2026-02-05 11h48.55.334616 +0530,,15_visual_search_2026-02-05_11h48.30.286.csv,,,,
white,13.0,1.0,4.0,[-0.058333333333333334],[-0.11222222222222222],[1],[0],[0],[1.0266312999999627],"['target', 'target']",4.0,1.0,13.0,0.0,35.09981559999994,,,,,,,,,,,35.072956999999974,35.09981559999994,0.0710599000000229,35.09981559999994,35.09981559999994,35.09981559999994,36.10089419999997,[-0.058333333333333334],[-0.11222222222222222],[1],[0],[0],[1.0266312999999627],"['target', 'target']",36.116246599999954,36.123873499999945,36.123873499999945,37.11471599999993,,,,,15.0,1.0,2026-02-05_11h48.54.725,visual_search,,2025.2.4,59.91188160454328,2026-02-05 11h48.55.334616 +0530,,15_visual_search_2026-02-05_11h48.30.286.csv,,,,
red,14.0,2.0,4.0,[0.007222222222222222],[0.175],[1],[0],[0],[1.0901738000000023],"['target', 'target']",4.0,2.0,14.0,2.0,37.22171709999998,,,,,,,,,,,37.19470439999998,37.22171709999998,0.0934172999999418,37.22171709999998,37.22171709999998,37.22171709999998,38.28590959999997,[0.007222222222222222],[0.175],[1],[0],[0],[1.0901738000000023],"['target', 'target']",38.29995049999991,38.30871379999997,38.30871379999997,39.29859069999998,,,,,15.0,1.0,2026-02-05_11h48.54.725,visual_search,,2025.2.4,59.91188160454328,2026-02-05 11h48.55.334616 +0530,,15_visual_search_2026-02-05_11h48.30.286.csv,,,,
,,,,,,,,,,,,,,,,,,,,,,,,,,,,,,,,,,,,,,,,,,,,,,39.30922129999999,39.31681429999992,,,,,,,,,,15_visual_search_2026-02-05_11h48.30.286.csv,,,,
,,,,,,,,,,,,,,,,,0.0045172999999749,0.0113139000000046,0.0038942999999562,3.215015200000039,0.3783333333333333,-0.2011111111111111,1.0,0.0,0.0,,,,,,,,,,,,,,,,,,,,,,,16.0,1.0,2026-02-05_11h53.25.921,visual_search,,2025.2.4,59.87063153935877,2026-02-05 11h53.26.645407 +0530,,16_visual_search_2026-02-05_11h53.04.319.csv,,,,
white,0.0,0.0,0.0,[-0.22333333333333333],[0.13444444444444445],[1],[0],[0],[1.8274102000000312],"['target', 'target']",0.0,0.0,0.0,1.0,3.427604500000029,,,,,,,,,,,3.404027000000042,3.427604500000029,0.1879513000000088,3.427604500000029,3.427604500000029,3.427604500000029,5.232736400000022,[-0.22333333333333333],[0.13444444444444445],[1],[0],[0],[1.8274102000000312],"['target', 'target']",5.255703600000061,5.265076099999988,5.265076099999988,6.244023999999968,,,,,16.0,1.0,2026-02-05_11h53.25.921,visual_search,,2025.2.4,59.87063153935877,2026-02-05 11h53.26.645407 +0530,,16_visual_search_2026-02-05_11h53.04.319.csv,,,,
white,1.0,1.0,0.0,[-0.057777777777777775],[-0.16722222222222222],[1],[0],[0],[2.25727930000005],"['target', 'target']",0.0,1.0,1.0,0.0,6.325037700000053,,,,,,,,,,,6.305834200000049,6.325037700000053,0.0726848000000472,6.325037700000053,6.325037700000053,6.325037700000053,8.564163300000018,[-0.057777777777777775],[-0.16722222222222222],[1],[0],[0],[2.25727930000005],"['target', 'target']",8.578042900000014,8.584819799999991,8.584819799999991,9.578602600000067,,,,,16.0,1.0,2026-02-05_11h53.25.921,visual_search,,2025.2.4,59.87063153935877,2026-02-05 11h53.26.645407 +0530,,16_visual_search_2026-02-05_11h53.04.319.csv,,,,
red,2.0,2.0,0.0,[0.10444444444444445],[-0.08],[1],[0],[0],[1.2164314999999988],"['target', 'target']",0.0,2.0,2.0,2.0,9.66835130000004,,,,,,,,,,,9.646657900000037,9.66835130000004,0.0821240000000216,9.66835130000004,9.66835130000004,9.66835130000004,10.86534000000006,[0.10444444444444445],[-0.08],[1],[0],[0],[1.2164314999999988],"['target', 'target']",10.880297799999994,10.885654300000056,10.885654300000056,11.878499000000032,,,,,16.0,1.0,2026-02-05_11h53.25.921,visual_search,,2025.2.4,59.87063153935877,2026-02-05 11h53.26.645407 +0530,,16_visual_search_2026-02-05_11h53.04.319.csv,,,,
white,3.0,0.0,1.0,[-0.07833333333333334],[0.0961111111111111],[1],[0],[0],[1.5556417000000238],"['target', 'target']",1.0,0.0,3.0,0.0,11.96703309999998,,,,,,,,,,,11.942682600000012,11.96703309999998,0.0769985999999107,11.96703309999998,11.96703309999998,11.96703309999998,13.499395700000036,[-0.07833333333333334],[0.0961111111111111],[1],[0],[0],[1.5556417000000238],"['target', 'target']",13.51061519999996,13.516708300000005,13.516708300000005,14.512646700000005,,,,,16.0,1.0,2026-02-05_11h53.25.921,visual_search,,2025.2.4,59.87063153935877,2026-02-05 11h53.26.645407 +0530,,16_visual_search_2026-02-05_11h53.04.319.csv,,,,
red,4.0,1.0,1.0,[0.20166666666666666],[-0.08],[1],[0],[0],[1.3519232000001011],"['target', 'target']",1.0,1.0,4.0,2.0,14.62950920000003,,,,,,,,,,,14.596631399999978,14.62950920000003,0.0970130000000608,14.62950920000003,14.62950920000003,14.62950920000003,15.949516399999991,[0.20166666666666666],[-0.08],[1],[0],[0],[1.3519232000001011],"['target', 'target']",15.962056599999984,15.969210800000042,15.969210800000042,16.963534200000026,,,,,16.0,1.0,2026-02-05_11h53.25.921,visual_search,,2025.2.4,59.87063153935877,2026-02-05 11h53.26.645407 +0530,,16_visual_search_2026-02-05_11h53.04.319.csv,,,,
white,5.0,2.0,1.0,[0.10111111111111111],[0.02666666666666667],[1],[0],[0],[1.2513584999999239],"['target', 'target']",1.0,2.0,5.0,1.0,17.056316100000004,,,,,,,,,,,17.030613099999982,17.056316100000004,0.080807400000026,17.056316100000004,17.056316100000004,17.056316100000004,18.28307359999997,[0.10111111111111111],[0.02666666666666667],[1],[0],[0],[1.2513584999999239],"['target', 'target']",18.295549100000017,18.3025619,18.3025619,19.2974729,,,,,16.0,1.0,2026-02-05_11h53.25.921,visual_search,,2025.2.4,59.87063153935877,2026-02-05 11h53.26.645407 +0530,,16_visual_search_2026-02-05_11h53.04.319.csv,,,,
red,6.0,0.0,2.0,[0.1811111111111111],[-0.006666666666666667],[1],[0],[0],[1.143573100000026],"['target', 'target']",2.0,0.0,6.0,2.0,19.376125500000057,,,,,,,,,,,19.35533350000003,19.376125500000057,0.0719000999999934,19.376125500000057,19.376125500000057,19.376125500000057,20.49979989999997,[0.1811111111111111],[-0.006666666666666667],[1],[0],[0],[1.143573100000026],"['target', 'target']",20.50914309999996,20.51523220000001,20.51523220000001,21.4990722,21.594036200000005,21.594036200000005,,,16.0,1.0,2026-02-05_11h53.25.921,visual_search,,2025.2.4,59.87063153935877,2026-02-05 11h53.26.645407 +0530,,16_visual_search_2026-02-05_11h53.04.319.csv,,,,
white,7.0,1.0,2.0,[-0.008333333333333333],[-0.075],[1],[0],[0],[1.4474635999999919],"['target', 'target']",2.0,1.0,7.0,0.0,21.594036200000005,,,,,,,,,,,21.56892100000005,21.594036200000005,0.0689568000000235,21.594036200000005,21.594036200000005,21.594036200000005,23.017381800000067,[-0.008333333333333333],[-0.075],[1],[0],[0],[1.4474635999999919],"['target', 'target']",23.031979500000038,23.038904,23.038904,24.03192869999998,,,,,16.0,1.0,2026-02-05_11h53.25.921,visual_search,,2025.2.4,59.87063153935877,2026-02-05 11h53.26.645407 +0530,,16_visual_search_2026-02-05_11h53.04.319.csv,,,,
white,8.0,2.0,2.0,[-0.10055555555555555],[0.22333333333333333],[1],[0],[0],[2.853918300000032],"['target', 'target']",2.0,2.0,8.0,1.0,24.12313949999998,,,,,,,,,,,24.098036800000045,24.12313949999998,0.0803521000000273,24.12313949999998,24.12313949999998,24.12313949999998,26.95308209999996,[-0.10055555555555555],[0.22333333333333333],[1],[0],[0],[2.853918300000032],"['target', 'target']",26.96588250000002,26.974104399999987,26.974104399999987,27.966598299999987,,,,,16.0,1.0,2026-02-05_11h53.25.921,visual_search,,2025.2.4,59.87063153935877,2026-02-05 11h53.26.645407 +0530,,16_visual_search_2026-02-05_11h53.04.319.csv,,,,
red,9.0,0.0,3.0,[0.05277777777777778],[-0.06],[1],[0],[0],[1.6487263000000212],"['target', 'target']",3.0,0.0,9.0,2.0,28.063496800000053,,,,,,,,,,,28.037390800000026,28.063496800000053,0.0839869999999791,28.063496800000053,28.063496800000053,28.063496800000053,29.687186500000053,[0.05277777777777778],[-0.06],[1],[0],[0],[1.6487263000000212],"['target', 'target']",29.702741800000013,29.71088050000003,29.71088050000003,30.70047039999997,,,,,16.0,1.0,2026-02-05_11h53.25.921,visual_search,,2025.2.4,59.87063153935877,2026-02-05 11h53.26.645407 +0530,,16_visual_search_2026-02-05_11h53.04.319.csv,,,,
white,10.0,1.0,3.0,[-0.2],[-0.055],[1],[0],[0],[2.7055071999999427],"['target', 'target']",3.0,1.0,10.0,0.0,30.791673899999974,,,,,,,,,,,30.76465200000007,30.791673899999974,0.0771757999999636,30.791673899999974,30.791673899999974,30.791673899999974,33.471336000000065,[-0.2],[-0.055],[1],[0],[0],[2.7055071999999427],"['target', 'target']",33.483182000000056,33.49024650000001,33.49024650000001,34.48476879999998,,,,,16.0,1.0,2026-02-05_11h53.25.921,visual_search,,2025.2.4,59.87063153935877,2026-02-05 11h53.26.645407 +0530,,16_visual_search_2026-02-05_11h53.04.319.csv,,,,
white,11.0,2.0,3.0,[-0.08],[0.22722222222222221],[1],[0],[0],[1.2990346999999929],"['target', 'target']",3.0,2.0,11.0,1.0,34.57765660000007,,,,,,,,,,,34.5550829,34.57765660000007,0.0834575000000086,34.57765660000007,34.57765660000007,34.57765660000007,35.85506770000006,[-0.08],[0.22722222222222221],[1],[0],[0],[1.2990346999999929],"['target', 'target']",35.86742300000003,35.874540600000046,35.874540600000046,36.868669700000055,,,,,16.0,1.0,2026-02-05_11h53.25.921,visual_search,,2025.2.4,59.87063153935877,2026-02-05 11h53.26.645407 +0530,,16_visual_search_2026-02-05_11h53.04.319.csv,,,,
red,12.0,0.0,4.0,[0.1238888888888889],[0.2011111111111111],[1],[0],[0],[2.24555399999997],"['target', 'target']",4.0,0.0,12.0,2.0,36.95145020000007,,,,,,,,,,,36.92600230000005,36.95145020000007,0.0706457999999656,36.95145020000007,36.95145020000007,36.95145020000007,39.17240860000004,[0.1238888888888889],[0.2011111111111111],[1],[0],[0],[2.24555399999997],"['target', 'target']",39.18499129999998,39.19300420000002,39.19300420000002,40.18630500000006,,,,,16.0,1.0,2026-02-05_11h53.25.921,visual_search,,2025.2.4,59.87063153935877,2026-02-05 11h53.26.645407 +0530,,16_visual_search_2026-02-05_11h53.04.319.csv,,,,
white,13.0,1.0,4.0,[-0.021111111111111112],[0.03333333333333333],[1],[0],[0],[1.70506110000008],"['target', 'target']",4.0,1.0,13.0,0.0,40.27761240000007,,,,,,,,,,,40.25049220000005,40.27761240000007,0.077847199999951,40.27761240000007,40.27761240000007,40.27761240000007,41.95720700000004,[-0.021111111111111112],[0.03333333333333333],[1],[0],[0],[1.70506110000008],"['target', 'target']",41.97352969999997,41.981135600000016,41.981135600000016,42.97080189999997,,,,,16.0,1.0,2026-02-05_11h53.25.921,visual_search,,2025.2.4,59.87063153935877,2026-02-05 11h53.26.645407 +0530,,16_visual_search_2026-02-05_11h53.04.319.csv,,,,
white,14.0,2.0,4.0,[-0.205],[0.075],[1],[0],[0],[1.9838614000000234],"['target', 'target']",4.0,2.0,14.0,1.0,43.06260929999996,,,,,,,,,,,43.04005630000006,43.06260929999996,0.0821356999999807,43.06260929999996,43.06260929999996,43.06260929999996,45.0252514,[-0.205],[0.075],[1],[0],[0],[1.9838614000000234],"['target', 'target']",45.03936329999999,45.046060200000056,45.046060200000056,46.03846199999998,,,,,16.0,1.0,2026-02-05_11h53.25.921,visual_search,,2025.2.4,59.87063153935877,2026-02-05 11h53.26.645407 +0530,,16_visual_search_2026-02-05_11h53.04.319.csv,,,,
,,,,,,,,,,,,,,,,,,,,,,,,,,,,,,,,,,,,,,,,,,,,,,46.04546170000003,46.05427280000004,,,,,,,,,,16_visual_search_2026-02-05_11h53.04.319.csv,,,,
,,,,,,,,,,,,,,,,,0.0043248000001767,0.0101861999992252,0.0044748000000254,5.306296599999769,0.0716666666666666,-0.2455555555555555,1.0,0.0,0.0,,,,,,,,,,,,,,,,,,,,,,,17.0,1.0,2026-02-05_12h38.52.432,visual_search,,2024.1.5,,2026-02-05 12h39.51.014933 +0530,,17_visual_search_2026-02-05_12h38.52.432.csv,,,,
white,,,,[0.14944444444444444],[0.26055555555555554],[1],[0],[0],[1.6216268000007403],['target'],0.0,0.0,0.0,1.0,5.424061300000176,,,,,,,,,,,5.350809400000799,5.424061300000176,0.1028079000006982,5.424061300000176,5.424061300000176,5.424061300000176,7.031859099999565,,,,,,,,7.034246499999426,7.051757999999609,7.051757999999609,8.037804300000062,,,,,17.0,1.0,2026-02-05_12h38.52.432,visual_search,,2024.1.5,,2026-02-05 12h39.51.014933 +0530,,17_visual_search_2026-02-05_12h38.52.432.csv,,,,
red,,,,[0.22111111111111112],[0.20222222222222222],[1],[0],[0],[0.9786853000005067],['target'],0.0,1.0,1.0,2.0,8.103609699999652,,,,,,,,,,,8.038404299999456,8.103609699999652,0.0492188999996869,8.103609699999652,8.103609699999652,8.103609699999652,9.062850199999955,,,,,,,,9.063665800000308,9.0827491,9.0827491,10.070488400000611,,,,,17.0,1.0,2026-02-05_12h38.52.432,visual_search,,2024.1.5,,2026-02-05 12h39.51.014933 +0530,,17_visual_search_2026-02-05_12h38.52.432.csv,,,,
white,,,,[-0.13333333333333333],[-0.09444444444444444],[1],[0],[0],[1.4654468999997334],['target'],0.0,2.0,2.0,0.0,10.116669000000911,,,,,,,,,,,10.0707225999995,10.116669000000911,0.0386270999988482,10.116669000000911,10.116669000000911,10.116669000000911,11.56827019999946,,,,,,,,11.568985399999292,11.583778500000337,11.583778500000337,12.570640300000376,,,,,17.0,1.0,2026-02-05_12h38.52.432,visual_search,,2024.1.5,,2026-02-05 12h39.51.014933 +0530,,17_visual_search_2026-02-05_12h38.52.432.csv,,,,
red,,,,[0.03166666666666667],[-0.1361111111111111],[1],[0],[0],[0.9384511999996903],['target'],1.0,0.0,3.0,2.0,12.63410379999914,,,,,,,,,,,12.57115039999917,12.63410379999914,0.0468209000009665,12.63410379999914,12.63410379999914,12.63410379999914,13.55477029999929,,,,,,,,13.555756499999916,13.569001100000603,13.569001100000603,14.559051700000056,,,,,17.0,1.0,2026-02-05_12h38.52.432,visual_search,,2024.1.5,,2026-02-05 12h39.51.014933 +0530,,17_visual_search_2026-02-05_12h38.52.432.csv,,,,
white,,,,[0.1738888888888889],[0.06166666666666667],[1],[0],[0],[1.374068900000566],['target'],1.0,1.0,4.0,1.0,14.63119259999985,,,,,,,,,,,14.559592899999188,14.63119259999985,0.0559613999994326,14.63119259999985,14.63119259999985,14.63119259999985,15.986499399999955,,,,,,,,15.98722479999924,16.002208800000517,16.002208800000517,16.99230709999938,,,,,17.0,1.0,2026-02-05_12h38.52.432,visual_search,,2024.1.5,,2026-02-05 12h39.51.014933 +0530,,17_visual_search_2026-02-05_12h38.52.432.csv,,,,
white,,,,[-0.027777777777777776],[0.017222222222222222],[1],[0],[0],[1.015136199999688],['target'],1.0,2.0,5.0,0.0,17.062433400000373,,,,,,,,,,,16.992852699999276,17.062433400000373,0.0579139000001305,17.062433400000373,17.062433400000373,17.062433400000373,18.060830300000816,,,,,,,,18.06160199999977,18.075377499999377,18.075377499999377,19.05912429999989,19.131786199999624,19.131786199999624,,,17.0,1.0,2026-02-05_12h38.52.432,visual_search,,2024.1.5,,2026-02-05 12h39.51.014933 +0530,,17_visual_search_2026-02-05_12h38.52.432.csv,,,,
red,,,,[0.08388888888888889],[0.008333333333333333],[1],[0],[0],[1.1688482000008662],['target'],2.0,0.0,6.0,2.0,19.131786199999624,,,,,,,,,,,19.059743199999502,19.131786199999624,0.0505128999993758,19.131786199999624,19.131786199999624,19.131786199999624,20.28146039999956,,,,,,,,20.28215780000028,20.29565410000032,20.29565410000032,21.281137600000875,21.353932100000748,21.353932100000748,,,17.0,1.0,2026-02-05_12h38.52.432,visual_search,,2024.1.5,,2026-02-05 12h39.51.014933 +0530,,17_visual_search_2026-02-05_12h38.52.432.csv,,,,
white,,,,[-0.15722222222222224],[0.20277777777777778],[1],[0],[0],[1.335963300000003],['target'],2.0,1.0,7.0,1.0,21.353932100000748,,,,,,,,,,,21.28163700000005,21.353932100000748,0.0512582999999722,21.353932100000748,21.353932100000748,21.353932100000748,22.66971569999987,,,,,,,,22.67011730000013,22.68040099999962,22.68040099999962,23.66954760000044,23.740408600000592,23.740408600000592,,,17.0,1.0,2026-02-05_12h38.52.432,visual_search,,2024.1.5,,2026-02-05 12h39.51.014933 +0530,,17_visual_search_2026-02-05_12h38.52.432.csv,,,,
white,,,,[-0.07777777777777778],[-0.12777777777777777],[1],[0],[0],[1.2826650000006339],['target'],2.0,2.0,8.0,0.0,23.740408600000592,,,,,,,,,,,23.670180999999506,23.740408600000592,0.0495742000002792,23.740408600000592,23.740408600000592,23.740408600000592,25.00286129999949,,,,,,,,25.003557599999112,25.01734310000029,25.01734310000029,26.002426999999443,26.07370649999939,26.07370649999939,,,17.0,1.0,2026-02-05_12h38.52.432,visual_search,,2024.1.5,,2026-02-05 12h39.51.014933 +0530,,17_visual_search_2026-02-05_12h38.52.432.csv,,,,
white,,,,[-0.06277777777777778],[0.14],[1],[0],[0],[1.1246895999993285],['target'],3.0,0.0,9.0,1.0,26.07370649999939,,,,,,,,,,,26.00298769999972,26.07370649999939,0.0480556000002252,26.07370649999939,26.07370649999939,26.07370649999939,27.17698829999972,,,,,,,,27.17769849999968,27.193597699999373,27.193597699999373,28.179284100000583,,,,,17.0,1.0,2026-02-05_12h38.52.432,visual_search,,2024.1.5,,2026-02-05 12h39.51.014933 +0530,,17_visual_search_2026-02-05_12h38.52.432.csv,,,,
white,,,,[0.1461111111111111],[-0.2127777777777778],[1],[0],[0],[1.0646844000002602],['target'],3.0,1.0,10.0,0.0,28.251564100000905,,,,,,,,,,,28.179817599999296,28.251564100000905,0.0569278000002668,28.251564100000905,28.251564100000905,28.251564100000905,29.29968159999953,,,,,,,,29.300207899999805,29.310715800000253,29.310715800000253,30.30122619999929,,,,,17.0,1.0,2026-02-05_12h38.52.432,visual_search,,2024.1.5,,2026-02-05 12h39.51.014933 +0530,,17_visual_search_2026-02-05_12h38.52.432.csv,,,,
red,,,,[-0.015],[0.03611111111111111],[1],[0],[0],[0.9924308999998175],['target'],3.0,2.0,11.0,2.0,30.371155799999546,,,,,,,,,,,30.30175190000045,30.371155799999546,0.0509987000004912,30.371155799999546,30.371155799999546,30.371155799999546,31.34436319999986,,,,,,,,31.34504150000066,31.359139800000776,31.359139800000776,32.345358900000065,,,,,17.0,1.0,2026-02-05_12h38.52.432,visual_search,,2024.1.5,,2026-02-05 12h39.51.014933 +0530,,17_visual_search_2026-02-05_12h38.52.432.csv,,,,
red,,,,[0.005555555555555556],[-0.07555555555555556],[1],[0],[0],[0.9478830999996717],['target'],4.0,0.0,12.0,2.0,32.41622429999916,,,,,,,,,,,32.34593800000039,32.41622429999916,0.0513902000002417,32.41622429999916,32.41622429999916,32.41622429999916,33.344807800000126,,,,,,,,33.34546389999923,33.35985179999989,33.35985179999989,34.34608669999943,34.40819449999981,34.40819449999981,,,17.0,1.0,2026-02-05_12h38.52.432,visual_search,,2024.1.5,,2026-02-05 12h39.51.014933 +0530,,17_visual_search_2026-02-05_12h38.52.432.csv,,,,
white,,,,[-0.058888888888888886],[-0.2088888888888889],[1],[0],[0],[1.24023280000074],['target'],4.0,1.0,13.0,0.0,34.40819449999981,,,,,,,,,,,34.34689480000088,34.40819449999981,0.0453756000006251,34.40819449999981,34.40819449999981,34.40819449999981,35.63162399999965,,,,,,,,35.63236499999948,35.64647900000091,35.64647900000091,36.63379600000008,,,,,17.0,1.0,2026-02-05_12h38.52.432,visual_search,,2024.1.5,,2026-02-05 12h39.51.014933 +0530,,17_visual_search_2026-02-05_12h38.52.432.csv,,,,
white,,,,[-0.08333333333333333],[-0.20722222222222222],[1],[0],[0],[0.85615289999987],['target'],4.0,2.0,14.0,1.0,36.70312100000047,,,,,,,,,,,36.63430410000001,36.70312100000047,0.0514683000001241,36.70312100000047,36.70312100000047,36.70312100000047,37.5405922000009,,,,,,,,37.54167620000044,37.555069,37.555069,38.54494010000053,,,,,17.0,1.0,2026-02-05_12h38.52.432,visual_search,,2024.1.5,,2026-02-05 12h39.51.014933 +0530,,17_visual_search_2026-02-05_12h38.52.432.csv,,,,
,,,,,,,,,,,,,,,,,,,,,,,,,,,,,,,,,,,,,,,,,,,,,,38.54506939999919,38.55747410000004,17.0,1.0,2026-02-05_12h38.52.432,visual_search,,2024.1.5,,2026-02-05 12h39.51.014933 +0530,,17_visual_search_2026-02-05_12h38.52.432.csv,48.54331020000063,,,
,,,,,,,,,,,,,,,,,0.0074752999989868,0.0136442999992141,0.0072470999984943,12.366722399998253,0.0022222222222222,-0.0766666666666666,1.0,0.0,0.0,,,,,,,,,,,,,,,,,,,,,,,18.0,1.0,2026-02-05_13h30.57.127,visual_search,,2024.1.5,,2026-02-05 13h31.27.356875 +0530,,18_visual_search_2026-02-05_13h30.57.127.csv,,,,
white,,,,[-0.25055555555555553],[0.08666666666666667],[1],[0],[0],[1.8824207999987266],['target'],0.0,0.0,0.0,1.0,12.478593699999692,,,,,,,,,,,12.407290099999956,12.478593699999692,0.0921493000005284,12.478593699999692,12.478593699999692,12.478593699999692,14.342087099999844,,,,,,,,14.342954899999311,14.359909899998456,14.359909899998456,15.34779939999862,,,,,18.0,1.0,2026-02-05_13h30.57.127,visual_search,,2024.1.5,,2026-02-05 13h31.27.356875 +0530,,18_visual_search_2026-02-05_13h30.57.127.csv,,,,
white,,,,[-0.07111111111111111],[0.024444444444444446],[1],[0],[0],[1.3435081999996328],['target'],0.0,1.0,1.0,0.0,15.416459699999905,,,,,,,,,,,15.348287299999356,15.416459699999905,0.0550307999983488,15.416459699999905,15.416459699999905,15.416459699999905,16.74189539999861,,,,,,,,16.74245239999982,16.75698029999876,16.75698029999876,17.747833399998854,,,,,18.0,1.0,2026-02-05_13h30.57.127,visual_search,,2024.1.5,,2026-02-05 13h31.27.356875 +0530,,18_visual_search_2026-02-05_13h30.57.127.csv,,,,
red,,,,[-0.008888888888888889],[0.20055555555555554],[1],[0],[0],[1.2981970000000729],['target'],0.0,2.0,2.0,2.0,17.817918599999757,,,,,,,,,,,17.748788499999137,17.817918599999757,0.0570931999991444,17.817918599999757,17.817918599999757,17.817918599999757,19.09815959999833,,,,,,,,19.09874509999827,19.113271399999576,19.113271399999576,20.098428899998908,20.166795499999356,20.166795499999356,,,18.0,1.0,2026-02-05_13h30.57.127,visual_search,,2024.1.5,,2026-02-05 13h31.27.356875 +0530,,18_visual_search_2026-02-05_13h30.57.127.csv,,,,
white,,,,[0.20944444444444443],[0.24055555555555555],[1],[0],[0],[1.4245460999991337],['target'],1.0,0.0,3.0,1.0,20.166795499999356,,,,,,,,,,,20.09914629999912,20.166795499999356,0.049369000000297,20.166795499999356,20.166795499999356,20.166795499999356,21.57303189999948,,,,,,,,21.57368739999947,21.585676699998658,21.585676699998658,22.58025279999856,,,,,18.0,1.0,2026-02-05_13h30.57.127,visual_search,,2024.1.5,,2026-02-05 13h31.27.356875 +0530,,18_visual_search_2026-02-05_13h30.57.127.csv,,,,
white,,,,[0.19],[-0.1738888888888889],[1],[0],[0],[2.063400200000615],['target'],1.0,1.0,4.0,0.0,22.65329219999876,,,,,,,,,,,22.581133199999385,22.65329219999876,0.0604382999990775,22.65329219999876,22.65329219999876,22.65329219999876,24.69798399999854,,,,,,,,24.69847909999953,24.712600299999394,24.712600299999394,25.697469499998988,25.7645150999997,25.7645150999997,,,18.0,1.0,2026-02-05_13h30.57.127,visual_search,,2024.1.5,,2026-02-05 13h31.27.356875 +0530,,18_visual_search_2026-02-05_13h30.57.127.csv,,,,
red,,,,[0.19055555555555556],[0.06888888888888889],[1],[0],[0],[1.2124963999995089],['target'],1.0,2.0,5.0,2.0,25.7645150999997,,,,,,,,,,,25.698248099999542,25.7645150999997,0.0479102999997849,25.7645150999997,25.7645150999997,25.7645150999997,26.95936909999909,,,,,,,,26.959881799999494,26.9717598999996,26.9717598999996,27.962797999998656,,,,,18.0,1.0,2026-02-05_13h30.57.127,visual_search,,2024.1.5,,2026-02-05 13h31.27.356875 +0530,,18_visual_search_2026-02-05_13h30.57.127.csv,,,,
white,,,,[0.14722222222222223],[0.09333333333333334],[1],[0],[0],[1.286051299999599],['target'],2.0,0.0,6.0,0.0,28.033776299998863,,,,,,,,,,,27.963532399999167,28.033776299998863,0.0555955999989237,28.033776299998863,28.033776299998863,28.033776299998863,29.30197909999879,,,,,,,,29.302852799999528,29.316333999999188,29.316333999999188,30.31220929999836,,,,,18.0,1.0,2026-02-05_13h30.57.127,visual_search,,2024.1.5,,2026-02-05 13h31.27.356875 +0530,,18_visual_search_2026-02-05_13h30.57.127.csv,,,,
red,,,,[-0.2361111111111111],[-0.035555555555555556],[1],[0],[0],[1.5420520000006945],['target'],2.0,1.0,7.0,2.0,30.380698999999368,,,,,,,,,,,30.312592499998573,30.380698999999368,0.0581359000007069,30.380698999999368,30.380698999999368,30.380698999999368,31.90342259999852,,,,,,,,31.903952099999515,31.91745379999884,31.91745379999884,32.91239129999849,,,,,18.0,1.0,2026-02-05_13h30.57.127,visual_search,,2024.1.5,,2026-02-05 13h31.27.356875 +0530,,18_visual_search_2026-02-05_13h30.57.127.csv,,,,
white,,,,[-0.013333333333333334],[-0.11944444444444445],[1],[0],[0],[2.6347759000000224],['target'],2.0,2.0,8.0,1.0,32.98513439999988,,,,,,,,,,,32.91320449999876,32.98513439999988,0.0596855000003415,32.98513439999988,32.98513439999988,32.98513439999988,35.59894219999842,,,,,,,,35.59973319999881,35.617973899999924,35.617973899999924,36.61174009999922,,,,,18.0,1.0,2026-02-05_13h30.57.127,visual_search,,2024.1.5,,2026-02-05 13h31.27.356875 +0530,,18_visual_search_2026-02-05_13h30.57.127.csv,,,,
red,,,,[0.095],[0.12777777777777777],[1],[0],[0],[1.4452113999996072],['target'],3.0,0.0,9.0,2.0,36.69745459999831,,,,,,,,,,,36.61254740000004,36.69745459999831,0.0762557000016386,36.69745459999831,36.69745459999831,36.69745459999831,38.12161679999917,,,,,,,,38.122221999999965,38.13437929999964,38.13437929999964,39.1282644999992,,,,,18.0,1.0,2026-02-05_13h30.57.127,visual_search,,2024.1.5,,2026-02-05 13h31.27.356875 +0530,,18_visual_search_2026-02-05_13h30.57.127.csv,,,,
white,,,,[0.1111111111111111],[-0.23166666666666666],[1],[0],[0],[1.301920699999755],['target'],3.0,1.0,10.0,1.0,39.20005979999951,,,,,,,,,,,39.12930719999895,39.20005979999951,0.0582223000001249,39.20005979999951,39.20005979999951,39.20005979999951,40.48279079999884,,,,,,,,40.48337559999891,40.49599679999847,40.49599679999847,41.49431539999932,,,,,18.0,1.0,2026-02-05_13h30.57.127,visual_search,,2024.1.5,,2026-02-05 13h31.27.356875 +0530,,18_visual_search_2026-02-05_13h30.57.127.csv,,,,
white,,,,[-0.18555555555555556],[-0.19055555555555556],[1],[0],[0],[1.6831994999993185],['target'],3.0,2.0,11.0,0.0,41.566216399998666,,,,,,,,,,,41.49490679999872,41.566216399998666,0.0621265000008861,41.566216399998666,41.566216399998666,41.566216399998666,43.2291570999987,,,,,,,,43.22967499999868,43.24329309999848,43.24329309999848,44.227916099998765,44.29832699999861,44.29832699999861,,,18.0,1.0,2026-02-05_13h30.57.127,visual_search,,2024.1.5,,2026-02-05 13h31.27.356875 +0530,,18_visual_search_2026-02-05_13h30.57.127.csv,,,,
white,,,,[0.14222222222222222],[-0.21555555555555556],[1],[0],[0],[1.3991819999992003],['target'],4.0,0.0,12.0,0.0,44.29832699999861,,,,,,,,,,,44.22851989999981,44.29832699999861,0.0474672000000282,44.29832699999861,44.29832699999861,44.29832699999861,45.67671139999948,,,,,,,,45.677269899999374,45.68986529999893,45.68986529999893,46.67791279999983,46.750330299999405,46.750330299999405,,,18.0,1.0,2026-02-05_13h30.57.127,visual_search,,2024.1.5,,2026-02-05 13h31.27.356875 +0530,,18_visual_search_2026-02-05_13h30.57.127.csv,,,,
red,,,,[-0.06],[-0.2038888888888889],[1],[0],[0],[1.3353707999995095],['target'],4.0,1.0,13.0,2.0,46.750330299999405,,,,,,,,,,,46.67872219999845,46.750330299999405,0.0526938000002701,46.750330299999405,46.750330299999405,46.750330299999405,48.06576979999954,,,,,,,,48.066330699999526,48.07943239999986,48.07943239999986,49.07650779999858,,,,,18.0,1.0,2026-02-05_13h30.57.127,visual_search,,2024.1.5,,2026-02-05 13h31.27.356875 +0530,,18_visual_search_2026-02-05_13h30.57.127.csv,,,,
white,,,,[-0.1272222222222222],[-0.21444444444444444],[1],[0],[0],[1.2821984000001976],['target'],4.0,2.0,14.0,1.0,49.14746139999989,,,,,,,,,,,49.07735069999944,49.14746139999989,0.061483200001021,49.14746139999989,49.14746139999989,49.14746139999989,50.41042239999842,,,,,,,,50.41093949999959,50.42570549999982,50.42570549999982,51.41070330000002,51.425707699998384,51.425707699998384,,,18.0,1.0,2026-02-05_13h30.57.127,visual_search,,2024.1.5,,2026-02-05 13h31.27.356875 +0530,,18_visual_search_2026-02-05_13h30.57.127.csv,,,,
,,,,,,,,,,,,,,,,,,,,,,,,,,,,,,,,,,,,,,,,,,,,,,51.41085189999831,51.425707699998384,18.0,1.0,2026-02-05_13h30.57.127,visual_search,,2024.1.5,,2026-02-05 13h31.27.356875 +0530,,18_visual_search_2026-02-05_13h30.57.127.csv,61.42519629999879,,,
,,,,,,,,,,,,,,,,,0.0184222999996563,0.0257048999992548,0.017770800001017,8.836683199999243,-0.0388888888888888,-0.0672222222222222,1.0,0.0,0.0,,,,,,,,,,,,,,,,,,,,,,,19.0,1.0,2026-02-05_14h39.09.206,visual_search,,2024.1.5,,2026-02-05 14h39.29.142381 +0530,,19_visual_search_2026-02-05_14h39.09.206.csv,,,,
white,,,,[0.04055555555555555],[0.06222222222222222],[1],[0],[0],[2.37344640000083],['target'],0.0,0.0,0.0,1.0,8.93155939999997,,,,,,,,,,,8.853306699998939,8.93155939999997,0.0749217000011412,8.93155939999997,8.93155939999997,8.93155939999997,11.286544800001138,,,,,,,,11.287515299998631,11.304971099998513,11.304971099998513,12.292644400000428,,,,,19.0,1.0,2026-02-05_14h39.09.206,visual_search,,2024.1.5,,2026-02-05 14h39.29.142381 +0530,,19_visual_search_2026-02-05_14h39.09.206.csv,,,,
white,,,,[-0.08166666666666667],[-0.235],[1],[0],[0],[1.7341402000020025],['target'],0.0,1.0,1.0,0.0,12.36353439999948,,,,,,,,,,,12.293539999998757,12.36353439999948,0.0580675000019255,12.36353439999948,12.36353439999948,12.36353439999948,14.080124299998715,,,,,,,,14.080632400000468,14.094243600000482,14.094243600000482,15.091936400000122,,,,,19.0,1.0,2026-02-05_14h39.09.206,visual_search,,2024.1.5,,2026-02-05 14h39.29.142381 +0530,,19_visual_search_2026-02-05_14h39.09.206.csv,,,,
red,,,,[0.16444444444444445],[0.1688888888888889],[1],[0],[0],[1.6761199000029592],['target'],0.0,2.0,2.0,2.0,15.162995200000296,,,,,,,,,,,15.092421500001365,15.162995200000296,0.0618112000011024,15.162995200000296,15.162995200000296,15.162995200000296,16.819012200001453,,,,,,,,16.819524499998806,16.836258300001646,16.836258300001646,17.825047499998618,,,,,19.0,1.0,2026-02-05_14h39.09.206,visual_search,,2024.1.5,,2026-02-05 14h39.29.142381 +0530,,19_visual_search_2026-02-05_14h39.09.206.csv,,,,
white,,,,[0.09333333333333334],[-0.15666666666666668],[1],[0],[0],[1.4715800000012678],['target'],1.0,0.0,3.0,0.0,17.89986080000017,,,,,,,,,,,17.82605390000026,17.89986080000017,0.0575651999970432,17.89986080000017,17.89986080000017,17.89986080000017,19.349130200000214,,,,,,,,19.349639000000025,19.362501899999188,19.362501899999188,20.358269600001226,,,,,19.0,1.0,2026-02-05_14h39.09.206,visual_search,,2024.1.5,,2026-02-05 14h39.29.142381 +0530,,19_visual_search_2026-02-05_14h39.09.206.csv,,,,
white,,,,[0.1527777777777778],[0.10833333333333334],[1],[0],[0],[1.5263615000003483],['target'],1.0,1.0,4.0,1.0,20.427590999999666,,,,,,,,,,,20.359045199998945,20.427590999999666,0.0598777999985031,20.427590999999666,20.427590999999666,20.427590999999666,21.93625880000036,,,,,,,,21.93693340000027,21.949230800000805,21.949230800000805,22.941197200001625,,,,,19.0,1.0,2026-02-05_14h39.09.206,visual_search,,2024.1.5,,2026-02-05 14h39.29.142381 +0530,,19_visual_search_2026-02-05_14h39.09.206.csv,,,,
red,,,,[0.23833333333333334],[0.10111111111111111],[1],[0],[0],[1.13956060000055],['target'],1.0,2.0,5.0,2.0,23.01030940000055,,,,,,,,,,,22.942350699999224,23.01030940000055,0.0549543999986781,23.01030940000055,23.01030940000055,23.01030940000055,24.131855200001155,,,,,,,,24.132350299998507,24.14656620000096,24.14656620000096,25.1406261000011,,,,,19.0,1.0,2026-02-05_14h39.09.206,visual_search,,2024.1.5,,2026-02-05 14h39.29.142381 +0530,,19_visual_search_2026-02-05_14h39.09.206.csv,,,,
red,,,,[-0.21444444444444444],[-0.13],[1],[0],[0],[1.7384023999984493],['target'],2.0,0.0,6.0,2.0,25.216096899999684,,,,,,,,,,,25.141332300001523,25.216096899999684,0.0588372999991406,25.216096899999684,25.216096899999684,25.216096899999684,26.930034900000464,,,,,,,,26.930541400000948,26.944407999999385,26.944407999999385,27.940440300000773,,,,,19.0,1.0,2026-02-05_14h39.09.206,visual_search,,2024.1.5,,2026-02-05 14h39.29.142381 +0530,,19_visual_search_2026-02-05_14h39.09.206.csv,,,,
white,,,,[0.23222222222222222],[-0.05277777777777778],[1],[0],[0],[1.9564160000008997],['target'],2.0,1.0,7.0,0.0,28.026387599999,,,,,,,,,,,27.942653199999768,28.026387599999,0.0704284999992523,28.026387599999,28.026387599999,28.026387599999,29.95783830000073,,,,,,,,29.958355999999185,29.971140900001046,29.971140900001046,30.957973600001424,31.027873800001544,31.027873800001544,,,19.0,1.0,2026-02-05_14h39.09.206,visual_search,,2024.1.5,,2026-02-05 14h39.29.142381 +0530,,19_visual_search_2026-02-05_14h39.09.206.csv,,,,
white,,,,[-0.19611111111111112],[-0.13555555555555557],[1],[0],[0],[2.083622900001501],['target'],2.0,2.0,8.0,1.0,31.027873800001544,,,,,,,,,,,30.958641900000657,31.027873800001544,0.0507842000006348,31.027873800001544,31.027873800001544,31.027873800001544,33.09317899999951,,,,,,,,33.09373559999949,33.10590489999959,33.10590489999959,34.090251000001444,34.15788020000036,34.15788020000036,,,19.0,1.0,2026-02-05_14h39.09.206,visual_search,,2024.1.5,,2026-02-05 14h39.29.142381 +0530,,19_visual_search_2026-02-05_14h39.09.206.csv,,,,
white,,,,[-0.16277777777777777],[-0.24388888888888888],[1],[0],[0],[1.609469299997727],['target'],3.0,0.0,9.0,1.0,34.15788020000036,,,,,,,,,,,34.09085380000033,34.15788020000036,0.0457322000002022,34.15788020000036,34.15788020000036,34.15788020000036,35.749391900000774,,,,,,,,35.74994919999881,35.7643977000007,35.7643977000007,36.75606759999937,,,,,19.0,1.0,2026-02-05_14h39.09.206,visual_search,,2024.1.5,,2026-02-05 14h39.29.142381 +0530,,19_visual_search_2026-02-05_14h39.09.206.csv,,,,
white,,,,[0.12],[0.05277777777777778],[1],[0],[0],[1.3280405000004976],['target'],3.0,1.0,10.0,0.0,36.82792189999964,,,,,,,,,,,36.75713860000178,36.82792189999964,0.059474699999555,36.82792189999964,36.82792189999964,36.82792189999964,38.137858800000686,,,,,,,,38.13836960000117,38.151458500000444,38.151458500000444,39.13896250000107,,,,,19.0,1.0,2026-02-05_14h39.09.206,visual_search,,2024.1.5,,2026-02-05 14h39.29.142381 +0530,,19_visual_search_2026-02-05_14h39.09.206.csv,,,,
red,,,,[-0.23333333333333334],[0.14],[1],[0],[0],[1.3645163000001048],['target'],3.0,2.0,11.0,2.0,39.21158020000075,,,,,,,,,,,39.13981839999906,39.21158020000075,0.0523057999998854,39.21158020000075,39.21158020000075,39.21158020000075,40.55564249999952,,,,,,,,40.556179399998655,40.56843909999952,40.56843909999952,41.55666289999863,41.63443579999876,41.63443579999876,,,19.0,1.0,2026-02-05_14h39.09.206,visual_search,,2024.1.5,,2026-02-05 14h39.29.142381 +0530,,19_visual_search_2026-02-05_14h39.09.206.csv,,,,
red,,,,[-0.23166666666666666],[0.23833333333333334],[1],[0],[0],[1.3946294000015769],['target'],4.0,0.0,12.0,2.0,41.63443579999876,,,,,,,,,,,41.5575714000006,41.63443579999876,0.0567435000011755,41.63443579999876,41.63443579999876,41.63443579999876,43.00796470000205,,,,,,,,43.00852160000068,43.02280090000204,43.02280090000204,44.02119920000041,,,,,19.0,1.0,2026-02-05_14h39.09.206,visual_search,,2024.1.5,,2026-02-05 14h39.29.142381 +0530,,19_visual_search_2026-02-05_14h39.09.206.csv,,,,
white,,,,[0.0038888888888888888],[0.14222222222222222],[1],[0],[0],[1.5079387000005227],['target'],4.0,1.0,13.0,0.0,44.09600190000128,,,,,,,,,,,44.02165470000182,44.09600190000128,0.0618104999994102,44.09600190000128,44.09600190000128,44.09600190000128,45.578700500002014,,,,,,,,45.57928729999912,45.59242079999967,45.59242079999967,46.58754020000197,,,,,19.0,1.0,2026-02-05_14h39.09.206,visual_search,,2024.1.5,,2026-02-05 14h39.29.142381 +0530,,19_visual_search_2026-02-05_14h39.09.206.csv,,,,
white,,,,[-0.02722222222222222],[-0.0038888888888888888],[1],[0],[0],[1.8453836000007868],['target'],4.0,2.0,14.0,1.0,46.66030550000141,,,,,,,,,,,46.58803930000067,46.66030550000141,0.0567238000003271,46.66030550000141,46.66030550000141,46.66030550000141,48.48182630000156,,,,,,,,48.48238539999875,48.49611500000174,48.49611500000174,49.48722130000169,,,,,19.0,1.0,2026-02-05_14h39.09.206,visual_search,,2024.1.5,,2026-02-05 14h39.29.142381 +0530,,19_visual_search_2026-02-05_14h39.09.206.csv,,,,
,,,,,,,,,,,,,,,,,,,,,,,,,,,,,,,,,,,,,,,,,,,,,,49.4873676999996,49.503588300001866,19.0,1.0,2026-02-05_14h39.09.206,visual_search,,2024.1.5,,2026-02-05 14h39.29.142381 +0530,,19_visual_search_2026-02-05_14h39.09.206.csv,59.48689290000039,,,
,,,,,,,,,,,,,,,,,0.0086372000005212,0.017427900000257,0.0079707999993843,26.488324300000382,-0.1955555555555555,-0.2511111111111111,1.0,0.0,0.0,,,,,,,,,,,,,,,,,,,,,,,1.0,2.0,2026-02-03_15h36.25.316,visual_search,,2024.1.5,,2026-02-03 15h36.44.053001 +0530,,1_visual_search_2026-02-03_15h36.25.316.csv,,,,
white,,,,[-0.17944444444444443],[-0.04111111111111111],[1],[0],[0],[5.650240599999961],['target'],0.0,0.0,0.0,0.0,26.66346680000061,,,,,,,,,,,26.537394200000563,26.66346680000061,0.1417731000001367,26.66346680000061,26.66346680000061,26.66346680000061,32.28142350000053,,,,,,,,32.2827711000009,32.307647100000395,32.307647100000395,33.288200800001505,,,,,1.0,2.0,2026-02-03_15h36.25.316,visual_search,,2024.1.5,,2026-02-03 15h36.44.053001 +0530,,1_visual_search_2026-02-03_15h36.25.316.csv,,,,
red,,,,[0.1638888888888889],[-0.08388888888888889],[1],[0],[0],[3.671442800001387],['target'],0.0,1.0,1.0,2.0,33.38985850000063,,,,,,,,,,,33.28883010000027,33.38985850000063,0.080711099999462,33.38985850000063,33.38985850000063,33.38985850000063,37.03587340000013,,,,,,,,37.03672499999993,37.0568217,37.0568217,38.03764730000148,,,,,1.0,2.0,2026-02-03_15h36.25.316,visual_search,,2024.1.5,,2026-02-03 15h36.44.053001 +0530,,1_visual_search_2026-02-03_15h36.25.316.csv,,,,
white,,,,[0.1272222222222222],[-0.022222222222222223],[1],[0],[0],[2.6135032000001956],['target'],0.0,2.0,2.0,1.0,38.1461259000007,,,,,,,,,,,38.03811570000107,38.1461259000007,0.0798892000002524,38.1461259000007,38.1461259000007,38.1461259000007,40.73087550000128,,,,,,,,40.73170960000061,40.7497242999998,40.7497242999998,41.73683789999996,,,,,1.0,2.0,2026-02-03_15h36.25.316,visual_search,,2024.1.5,,2026-02-03 15h36.44.053001 +0530,,1_visual_search_2026-02-03_15h36.25.316.csv,,,,
red,,,,[-0.06777777777777778],[-0.1322222222222222],[1],[0],[0],[2.244134500000655],['target'],1.0,0.0,3.0,2.0,41.84554399999979,,,,,,,,,,,41.73735260000103,41.84554399999979,0.0846789999995962,41.84554399999979,41.84554399999979,41.84554399999979,44.06132010000147,,,,,,,,44.06226220000099,44.08361810000133,44.08361810000133,45.06983300000138,,,,,1.0,2.0,2026-02-03_15h36.25.316,visual_search,,2024.1.5,,2026-02-03 15h36.44.053001 +0530,,1_visual_search_2026-02-03_15h36.25.316.csv,,,,
white,,,,[-0.13055555555555556],[0.09555555555555556],[1],[0],[0],[2.2551214000013715],['target'],1.0,1.0,4.0,0.0,45.17995180000071,,,,,,,,,,,45.070307500000126,45.17995180000071,0.0867132000003039,45.17995180000071,45.17995180000071,45.17995180000071,47.40499460000137,,,,,,,,47.40597230000094,47.42423039999994,47.42423039999994,48.413965000001554,,,,,1.0,2.0,2026-02-03_15h36.25.316,visual_search,,2024.1.5,,2026-02-03 15h36.44.053001 +0530,,1_visual_search_2026-02-03_15h36.25.316.csv,,,,
white,,,,[-0.155],[-0.235],[1],[0],[0],[2.29657860000043],['target'],1.0,2.0,5.0,1.0,48.52158710000003,,,,,,,,,,,48.414461700000174,48.52158710000003,0.0881776999995054,48.52158710000003,48.52158710000003,48.52158710000003,50.79167969999981,,,,,,,,50.7925189000016,50.811880300001576,50.811880300001576,51.80209819999982,,,,,1.0,2.0,2026-02-03_15h36.25.316,visual_search,,2024.1.5,,2026-02-03 15h36.44.053001 +0530,,1_visual_search_2026-02-03_15h36.25.316.csv,,,,
white,,,,[0.15777777777777777],[0.06277777777777778],[1],[0],[0],[1.9023849999994127],['target'],2.0,0.0,6.0,1.0,51.90195420000055,,,,,,,,,,,51.80253830000038,51.90195420000055,0.0816348000007565,51.90195420000055,51.90195420000055,51.90195420000055,53.7774601000001,,,,,,,,53.7783169000013,53.79668070000116,53.79668070000116,54.78504460000113,,,,,1.0,2.0,2026-02-03_15h36.25.316,visual_search,,2024.1.5,,2026-02-03 15h36.44.053001 +0530,,1_visual_search_2026-02-03_15h36.25.316.csv,,,,
red,,,,[0.06888888888888889],[-0.04611111111111111],[1],[0],[0],[1.2924853000004077],['target'],2.0,1.0,7.0,2.0,54.90183350000007,,,,,,,,,,,54.785644100000354,54.90183350000007,0.0876391000001604,54.90183350000007,54.90183350000007,54.90183350000007,56.15922690000116,,,,,,,,56.1602098000003,56.18313070000113,56.18313070000113,57.16225800000029,,,,,1.0,2.0,2026-02-03_15h36.25.316,visual_search,,2024.1.5,,2026-02-03 15h36.44.053001 +0530,,1_visual_search_2026-02-03_15h36.25.316.csv,,,,
white,,,,[-0.115],[0.10388888888888889],[1],[0],[0],[1.6319187000008242],['target'],2.0,2.0,8.0,0.0,57.26888830000098,,,,,,,,,,,57.16271870000128,57.26888830000098,0.0819050000009156,57.26888830000098,57.26888830000098,57.26888830000098,58.87496060000012,,,,,,,,58.875795600000856,58.89655640000092,58.89655640000092,59.87849650000135,,,,,1.0,2.0,2026-02-03_15h36.25.316,visual_search,,2024.1.5,,2026-02-03 15h36.44.053001 +0530,,1_visual_search_2026-02-03_15h36.25.316.csv,,,,
red,,,,[-0.24944444444444444],[0.10777777777777778],[1],[0],[0],[1.443444599999566],['target'],3.0,0.0,9.0,2.0,59.99116660000072,,,,,,,,,,,59.87894220000089,59.99116660000072,0.0793211000000155,59.99116660000072,59.99116660000072,59.99116660000072,61.39952030000131,,,,,,,,61.40036920000057,61.42116150000038,61.42116150000038,62.411421300001166,,,,,1.0,2.0,2026-02-03_15h36.25.316,visual_search,,2024.1.5,,2026-02-03 15h36.44.053001 +0530,,1_visual_search_2026-02-03_15h36.25.316.csv,,,,
white,,,,[-0.1711111111111111],[0.06888888888888889],[1],[0],[0],[2.097395900000265],['target'],3.0,1.0,10.0,0.0,62.52520080000068,,,,,,,,,,,62.41194490000089,62.52520080000068,0.0895662999992055,62.52520080000068,62.52520080000068,62.52520080000068,64.58828730000096,,,,,,,,64.5891343000003,64.61138030000075,64.61138030000075,65.59982120000132,,,,,1.0,2.0,2026-02-03_15h36.25.316,visual_search,,2024.1.5,,2026-02-03 15h36.44.053001 +0530,,1_visual_search_2026-02-03_15h36.25.316.csv,,,,
white,,,,[0.052222222222222225],[-0.22277777777777777],[1],[0],[0],[2.6928232000009302],['target'],3.0,2.0,11.0,1.0,65.70229450000079,,,,,,,,,,,65.60025700000006,65.70229450000079,0.0837197000000742,65.70229450000079,65.70229450000079,65.70229450000079,68.36663970000154,,,,,,,,68.36754900000051,68.3874080000005,68.3874080000005,69.3715585000009,,,,,1.0,2.0,2026-02-03_15h36.25.316,visual_search,,2024.1.5,,2026-02-03 15h36.44.053001 +0530,,1_visual_search_2026-02-03_15h36.25.316.csv,,,,
white,,,,[-0.07],[-0.12055555555555555],[1],[0],[0],[1.7816542999989906],['target'],4.0,0.0,12.0,0.0,69.47340120000081,,,,,,,,,,,69.37201210000057,69.47340120000081,0.0776037999985419,69.47340120000081,69.47340120000081,69.47340120000081,71.22783190000155,,,,,,,,71.22869710000123,71.2468456000006,71.2468456000006,72.23776440000074,,,,,1.0,2.0,2026-02-03_15h36.25.316,visual_search,,2024.1.5,,2026-02-03 15h36.44.053001 +0530,,1_visual_search_2026-02-03_15h36.25.316.csv,,,,
red,,,,[-0.1827777777777778],[-0.19111111111111112],[1],[0],[0],[1.218052300000636],['target'],4.0,1.0,13.0,2.0,72.34310730000107,,,,,,,,,,,72.23821090000092,72.34310730000107,0.0878863999987515,72.34310730000107,72.34310730000107,72.34310730000107,73.53552820000004,,,,,,,,73.53639480000129,73.55617090000123,73.55617090000123,74.53729879999992,,,,,1.0,2.0,2026-02-03_15h36.25.316,visual_search,,2024.1.5,,2026-02-03 15h36.44.053001 +0530,,1_visual_search_2026-02-03_15h36.25.316.csv,,,,
white,,,,[0.205],[-0.09833333333333333],[1],[0],[0],[2.179066700000476],['target'],4.0,2.0,14.0,1.0,74.64196179999999,,,,,,,,,,,74.53781270000036,74.64196179999999,0.077201199999763,74.64196179999999,74.64196179999999,74.64196179999999,76.79351690000112,,,,,,,,76.79437280000093,76.81438909999997,76.81438909999997,77.8041473000012,,,,,1.0,2.0,2026-02-03_15h36.25.316,visual_search,,2024.1.5,,2026-02-03 15h36.44.053001 +0530,,1_visual_search_2026-02-03_15h36.25.316.csv,,,,
,,,,,,,,,,,,,,,,,,,,,,,,,,,,,,,,,,,,,,,,,,,,,,77.80424240000139,77.82305590000033,1.0,2.0,2026-02-03_15h36.25.316,visual_search,,2024.1.5,,2026-02-03 15h36.44.053001 +0530,,1_visual_search_2026-02-03_15h36.25.316.csv,87.80215120000139,,,
,,,,,,,,,,,,,,,,,0.0090297000024293,0.018676100000448,0.0084481000012601,30.49768260000201,0.0188888888888888,0.0133333333333333,1.0,0.0,0.0,,,,,,,,,,,,,,,,,,,,,,,20.0,1.0,2026-02-05_15h08.46.457,visual_search,,2024.1.5,,2026-02-05 15h09.06.702736 +0530,,20_visual_search_2026-02-05_15h08.46.457.csv,,,,
white,,,,[0.18944444444444444],[-0.08388888888888889],[1],[0],[0],[1.6135176999996474],['target'],0.0,0.0,0.0,0.0,30.57992580000064,,,,,,,,,,,30.510174600000028,30.57992580000064,0.0629017999999632,30.57992580000064,30.57992580000064,30.57992580000064,32.17481950000001,,,,,,,,32.17633420000129,32.1934175000024,32.1934175000024,33.18012129999988,,,,,20.0,1.0,2026-02-05_15h08.46.457,visual_search,,2024.1.5,,2026-02-05 15h09.06.702736 +0530,,20_visual_search_2026-02-05_15h08.46.457.csv,,,,
red,,,,[-0.020555555555555556],[0.19833333333333333],[1],[0],[0],[1.887859300000855],['target'],0.0,1.0,1.0,2.0,33.250012600001355,,,,,,,,,,,33.181185400000686,33.250012600001355,0.0559553999992203,33.250012600001355,33.250012600001355,33.250012600001355,35.12060520000159,,,,,,,,35.1211543999998,35.13581139999951,35.13581139999951,36.130043000001024,,,,,20.0,1.0,2026-02-05_15h08.46.457,visual_search,,2024.1.5,,2026-02-05 15h09.06.702736 +0530,,20_visual_search_2026-02-05_15h08.46.457.csv,,,,
white,,,,[-0.23444444444444446],[-0.009444444444444445],[1],[0],[0],[1.7460783999995328],['target'],0.0,2.0,2.0,1.0,36.20231870000134,,,,,,,,,,,36.13145930000246,36.20231870000134,0.0630544000014197,36.20231870000134,36.20231870000134,36.20231870000134,37.93067270000029,,,,,,,,37.93116540000119,37.94414239999969,37.94414239999969,38.92897960000119,38.99302330000137,38.99302330000137,,,20.0,1.0,2026-02-05_15h08.46.457,visual_search,,2024.1.5,,2026-02-05 15h09.06.702736 +0530,,20_visual_search_2026-02-05_15h08.46.457.csv,,,,
white,,,,[0.14777777777777779],[0.12111111111111111],[1],[0],[0],[1.1439540999999736],['target'],1.0,0.0,3.0,1.0,38.99302330000137,,,,,,,,,,,38.929456100002426,38.99302330000137,0.0442320999973162,38.99302330000137,38.99302330000137,38.99302330000137,40.119998100002704,,,,,,,,40.12084070000128,40.1355051999999,40.1355051999999,41.12833500000124,,,,,20.0,1.0,2026-02-05_15h08.46.457,visual_search,,2024.1.5,,2026-02-05 15h09.06.702736 +0530,,20_visual_search_2026-02-05_15h08.46.457.csv,,,,
red,,,,[-0.14833333333333334],[-0.13055555555555556],[1],[0],[0],[1.4664333000000624],['target'],1.0,1.0,4.0,2.0,41.20557010000266,,,,,,,,,,,41.12901620000048,41.20557010000266,0.0655504999995173,41.20557010000266,41.20557010000266,41.20557010000266,42.65325550000125,,,,,,,,42.6538412000009,42.66589759999988,42.66589759999988,43.662239000001136,,,,,20.0,1.0,2026-02-05_15h08.46.457,visual_search,,2024.1.5,,2026-02-05 15h09.06.702736 +0530,,20_visual_search_2026-02-05_15h08.46.457.csv,,,,
white,,,,[0.15666666666666668],[0.065],[1],[0],[0],[2.199846899999102],['target'],1.0,2.0,5.0,0.0,43.73486970000158,,,,,,,,,,,43.66328890000296,43.73486970000158,0.0627644000014697,43.73486970000158,43.73486970000158,43.73486970000158,45.91693950000263,,,,,,,,45.91746899999998,45.93091480000294,45.93091480000294,46.92767480000112,,,,,20.0,1.0,2026-02-05_15h08.46.457,visual_search,,2024.1.5,,2026-02-05 15h09.06.702736 +0530,,20_visual_search_2026-02-05_15h08.46.457.csv,,,,
red,,,,[0.19666666666666666],[0.1988888888888889],[1],[0],[0],[1.570393599999079],['target'],2.0,0.0,6.0,2.0,46.99940580000112,,,,,,,,,,,46.92846190000273,46.99940580000112,0.0629981999991287,46.99940580000112,46.99940580000112,46.99940580000112,48.5514914000014,,,,,,,,48.5520045000012,48.56433390000166,48.56433390000166,49.56114660000094,,,,,20.0,1.0,2026-02-05_15h08.46.457,visual_search,,2024.1.5,,2026-02-05 15h09.06.702736 +0530,,20_visual_search_2026-02-05_15h08.46.457.csv,,,,
white,,,,[-0.05388888888888889],[-0.11388888888888889],[1],[0],[0],[1.5708950000007462],['target'],2.0,1.0,7.0,0.0,49.6311867000004,,,,,,,,,,,49.56239300000016,49.6311867000004,0.0605911999991803,49.6311867000004,49.6311867000004,49.6311867000004,51.18385750000016,,,,,,,,51.18439600000056,51.19305540000278,51.19305540000278,52.17824810000093,52.24708310000278,52.24708310000278,,,20.0,1.0,2026-02-05_15h08.46.457,visual_search,,2024.1.5,,2026-02-05 15h09.06.702736 +0530,,20_visual_search_2026-02-05_15h08.46.457.csv,,,,
